pracWords,instr_1,instr_2,AOMI_Ima,AOMI_w,AOMI_h,practiceWords,prac_time,prac_bkgd_time,pracVid_1,pracVid_2,baseline_words,control_words,cont_time,cont_bgkd_time,first_vids,second_vids,AOMIfirst_words,AOMIsecond_words,Order,ratingScale,rateInstr,instructLoop.thisRepN,instructLoop.thisTrialN,instructLoop.thisN,instructLoop.thisIndex,practice_control.thisRepN,practice_control.thisTrialN,practice_control.thisN,practice_control.thisIndex,trials_1.thisRepN,trials_1.thisTrialN,trials_1.thisN,trials_1.thisIndex,baseRateLoop.thisRepN,baseRateLoop.thisTrialN,baseRateLoop.thisN,baseRateLoop.thisIndex,AOMIinstrLoop1.thisRepN,AOMIinstrLoop1.thisTrialN,AOMIinstrLoop1.thisN,AOMIinstrLoop1.thisIndex,AOMIpracLoop.thisRepN,AOMIpracLoop.thisTrialN,AOMIpracLoop.thisN,AOMIpracLoop.thisIndex,trials_2.thisRepN,trials_2.thisTrialN,trials_2.thisN,trials_2.thisIndex,AOMI1rateLoop.thisRepN,AOMI1rateLoop.thisTrialN,AOMI1rateLoop.thisN,AOMI1rateLoop.thisIndex,contInstrLoop.thisRepN,contInstrLoop.thisTrialN,contInstrLoop.thisN,contInstrLoop.thisIndex,contPracLoop.thisRepN,contPracLoop.thisTrialN,contPracLoop.thisN,contPracLoop.thisIndex,trials_3.thisRepN,trials_3.thisTrialN,trials_3.thisN,trials_3.thisIndex,contRateLoop.thisRepN,contRateLoop.thisTrialN,contRateLoop.thisN,contRateLoop.thisIndex,AOMIinstrLoop2.thisRepN,AOMIinstrLoop2.thisTrialN,AOMIinstrLoop2.thisN,AOMIinstrLoop2.thisIndex,AOMIpracLoop2.thisRepN,AOMIpracLoop2.thisTrialN,AOMIpracLoop2.thisN,AOMIpracLoop2.thisIndex,trials_4.thisRepN,trials_4.thisTrialN,trials_4.thisN,trials_4.thisIndex,AOMI2rateLoop.thisRepN,AOMI2rateLoop.thisTrialN,AOMI2rateLoop.thisN,AOMI2rateLoop.thisIndex,pracBkgdKeys.keys,pracKeys.keys,pracKeys.rt,baseBkgdKeys.keys,base_typedWord,baseKeys.keys,baseKeys.rt,baseRateTypeKey.keys,baseRateTypeKey.rt,AOMI1_BkgdKeys.keys,AOMI_promptBkgdKeys.keys,AOMI1pracKeys.keys,AOMI1pracKeys.rt,AOMI1bkdgKeys.keys,AOMI_promptBkgdKeys.rt,AOMI1_typedWord,AOMI1keys.keys,AOMI1keys.rt,AOMI1bkdgKeys.rt,AOMI1rateTypeKey.keys,AOMI1rateTypeKey.rt,polygon_prac.started,polygon_prac.stopped,contBkgdKeys_prac.keys,contPrac_typedWord,contKeys_prac.keys,contKeys_prac.rt,polygon.started,polygon.stopped,contBkgdKeys.keys,cont_typedWord,contKeys.keys,contKeys.rt,contTypeKey.keys,contTypeKey.rt,bkgdkeys_prac2.keys,bkgdKeys4.keys,AOMI2_typedWord,keyboardCom4.keys,keyboardCom4.rt,AOMI2typeKey.keys,AOMI2typeKey.rt,participant,session,group,date,expName,psychopyVersion,frameRate,
height,,,,,,,,,,,,,,,,,,,,,,,,,,0,0,0,0,,,,,,,,,,,,,,,,,,,,,,,,,,,,,,,,,,,,,,,,,,,,,,,,,,,,,,,,,None,"['h', 'e', 'i', 'g', 't', 'return']","[0.5721507999114692, 0.7485944000072777, 0.8599694999866188, 1.012009099824354, 1.2281738999299705, 1.8920246998313814]",,,,,,,,,,,,,,,,,,,,,,,,,,,,,,,,,,,,,,,,10,001,G,2023_Jan_30_1448,student_TT_local,2021.1.4,60.067527911603314,
replay,,,,,,,,,,,,,,,,,,,,,,,,,,0,1,1,1,,,,,,,,,,,,,,,,,,,,,,,,,,,,,,,,,,,,,,,,,,,,,,,,,,,,,,,,,None,"['r', 'e', '4', 'p', 'l', 'a', 'y', 'backspace', 'backspace', 'backspace', 'backspace', 'backspace', 'p', 'l', 'a', 'y', 'return']","[0.47028580005280674, 0.5587324001826346, 0.6064524000976235, 0.7264258000068367, 0.8783682000357658, 0.9903892001602799, 1.1352516000624746, 1.735362300183624, 1.8636177000589669, 1.982998999999836, 2.086573700187728, 2.4785730000585318, 3.055214500054717, 3.206957200076431, 3.350564300082624, 3.4786584000103176, 4.030740900197998]",,,,,,,,,,,,,,,,,,,,,,,,,,,,,,,,,,,,,,,,10,001,G,2023_Jan_30_1448,student_TT_local,2021.1.4,60.067527911603314,
update,,,,,,,,,,,,,,,,,,,,,,,,,,0,2,2,2,,,,,,,,,,,,,,,,,,,,,,,,,,,,,,,,,,,,,,,,,,,,,,,,,,,,,,,,,None,"['u', 'p', 'd', 'a', 't', 'e', 'return']","[0.7146620999556035, 0.8676068000495434, 1.3148336000740528, 1.418822699924931, 1.5549560999497771, 1.666846999898553, 2.570827200077474]",,,,,,,,,,,,,,,,,,,,,,,,,,,,,,,,,,,,,,,,10,001,G,2023_Jan_30_1448,student_TT_local,2021.1.4,60.067527911603314,
,None,None,None,None,None,None,None,None,None,None,defame,quarry,6.5,7.5,video&audio/frugal_TT_3X.mp4,video&audio/sentence6_TT_3X.mp4,frugal,patent,None,,,,,,,,,,,0,0,0,11,,,,,,,,,,,,,,,,,,,,,,,,,,,,,,,,,,,,,,,,,,,,,,,,,,,,,,,,None, defame,"['d', 'e', 'f', 'r', 'a', 'm', 'e', 'backspace', 'backspace', 'backspace', 'backspace', 'a', 'm', 'e', 'return']","[0.42881190008483827, 0.5249596000649035, 0.7088649000506848, 0.7166907000355422, 0.9093754000496119, 1.0449447000864893, 1.165159200085327, 1.8610167000442743, 2.0053344001062214, 2.13375569996424, 2.236971199978143, 2.693435600027442, 2.8768494001124054, 3.0141658999491483, 3.1974794999696314]",,,,,,,,,,,,,,,,,,,,,,,,,,,,,,,,,,,,10,001,G,2023_Jan_30_1448,student_TT_local,2021.1.4,60.067527911603314,
,None,None,None,None,None,None,None,None,None,None,gullet,manure,19.5,20.5,video&audio/tariff_touch_edited.mp4,video&audio/Sentence5_touch_edited.mp4,tariff,parish,None,,,,,,,,,,,0,1,1,28,,,,,,,,,,,,,,,,,,,,,,,,,,,,,,,,,,,,,,,,,,,,,,,,,,,,,,,,None, gullet,"['g', 'u', 'l', 'l', 'e', 't', 'return']","[0.4218947999179363, 0.5737231001257896, 1.0057550000492483, 1.1099308000411838, 1.2213985999114811, 1.40555280004628, 1.6214546000119299]",,,,,,,,,,,,,,,,,,,,,,,,,,,,,,,,,,,,10,001,G,2023_Jan_30_1448,student_TT_local,2021.1.4,60.067527911603314,
,"This is Section 2.

In this section, your task will be the same as before - that is, to type the word you see on the screen after the typing prompt. However, rather than just seeing the word before typing, you will also see a video of someone typing the same word you will need to type at various speeds. 

Press 'enter/return' to go to the next page.","This is Section 4. 

In this section, your task will be the same as before - that is, to type the word you see on the screen after the typing prompt. You will see a video again, like in Section 2, only this time, the video will show someone typing different words to what you must type at various speeds. 

Press 'enter/return' to go to the next page.",video&audio/Example_AOMI_layout.png,1.6,0.6,afford,19.5,20.5,video&audio/afford_touch_edited.mp4,video&audio/amount_touch_edited.mp4,breach,vanity,6.5,7.5,video&audio/ascend_TT_3X.mp4,video&audio/sentence1_TT_3X.mp4,ascend,hinder,1 = AOMIspec,,,,,,,,,,,0,2,2,0,,,,,,,,,,,,,,,,,,,,,,,,,,,,,,,,,,,,,,,,,,,,,,,,,,,,,,,,None, breach,"['b', 'r', 'e', 'a', 'c', 'return']","[0.5322644000407308, 0.7002896999474615, 0.908674499951303, 1.093533799983561, 1.2760995000135154, 1.9562395999673754]",,,,,,,,,,,,,,,,,,,,,,,,,,,,,,,,,,,,10,001,G,2023_Jan_30_1448,student_TT_local,2021.1.4,60.067527911603314,
,None,None,None,None,None,None,None,None,None,None,allure,binder,19.5,20.5,video&audio/virile_touch_edited.mp4,video&audio/Sentence6_touch_edited.mp4,virile,campus,None,,,,,,,,,,,0,3,3,29,,,,,,,,,,,,,,,,,,,,,,,,,,,,,,,,,,,,,,,,,,,,,,,,,,,,,,,,None, allure,"['a', 'l', 'l', 'u', 'r', 'e', 'return']","[0.4303504000417888, 0.5976107001770288, 0.741623800015077, 0.9419267000630498, 1.04559770016931, 1.109677400207147, 1.2938965000212193]",,,,,,,,,,,,,,,,,,,,,,,,,,,,,,,,,,,,10,001,G,2023_Jan_30_1448,student_TT_local,2021.1.4,60.067527911603314,
,None,None,None,None,None,None,None,None,None,None,ethnic,goblet,19.5,20.5,video&audio/subtle_touch_edited.mp4,video&audio/Sentence4_touch_edited.mp4,subtle,trench,None,,,,,,,,,,,0,4,4,27,,,,,,,,,,,,,,,,,,,,,,,,,,,,,,,,,,,,,,,,,,,,,,,,,,,,,,,,None, ethnic,"['a', 't', 'h', 'i', 'backspace', 'n', 'backspace', 'backspace', 'backspace', 'backspace', 'e', 't', 'h', 'n', 'i', 'c', 'return']","[0.5557957000564784, 0.7563076999504119, 0.8756689999718219, 1.0518983998335898, 1.5235601998865604, 2.252102099824697, 2.6031961999833584, 2.731557099847123, 2.8521381998434663, 2.9718789998441935, 3.611322300042957, 3.7800709998700768, 3.9559346998576075, 4.179358899826184, 4.299578699981794, 4.419428399996832, 4.6510689000133425]",,,,,,,,,,,,,,,,,,,,,,,,,,,,,,,,,,,,10,001,G,2023_Jan_30_1448,student_TT_local,2021.1.4,60.067527911603314,
,None,None,None,None,None,None,None,None,None,None,ration,parole,6.5,7.5,video&audio/devise_TT_3X.mp4,video&audio/sentence3_TT_3X.mp4,devise,befall,None,,,,,,,,,,,0,5,5,8,,,,,,,,,,,,,,,,,,,,,,,,,,,,,,,,,,,,,,,,,,,,,,,,,,,,,,,,None, ration,"['r', 'a', 't', 'i', 'o', 'n', 'return']","[0.4553831999655813, 0.9673811001703143, 1.279114100150764, 1.3918110001832247, 1.527423599967733, 1.7031688999850303, 2.0632019999902695]",,,,,,,,,,,,,,,,,,,,,,,,,,,,,,,,,,,,10,001,G,2023_Jan_30_1448,student_TT_local,2021.1.4,60.067527911603314,
,None,None,None,None,None,None,None,None,None,None,mucous,musket,19.5,20.5,video&audio/plasma_touch_edited.mp4,video&audio/Sentence5_touch_edited.mp4,plasma,fungal,None,,,,,,,,,,,0,6,6,22,,,,,,,,,,,,,,,,,,,,,,,,,,,,,,,,,,,,,,,,,,,,,,,,,,,,,,,,None, mucous,"['m', 'u', 'c', 'o', 'u', 's', 'return']","[0.6441061000805348, 0.9157010999042541, 1.0674548998940736, 1.2035155000630766, 1.3875271000433713, 1.5159438999835402, 1.9801761000417173]",,,,,,,,,,,,,,,,,,,,,,,,,,,,,,,,,,,,10,001,G,2023_Jan_30_1448,student_TT_local,2021.1.4,60.067527911603314,
,None,None,None,None,None,None,None,None,None,None,export,savant,19.5,20.5,video&audio/parcel_touch_edited.mp4,video&audio/Sentence2_touch_edited.mp4,parcel,cobble,None,,,,,,,,,,,0,7,7,19,,,,,,,,,,,,,,,,,,,,,,,,,,,,,,,,,,,,,,,,,,,,,,,,,,,,,,,,None, export,"['e', 'x', 'p', 'o', 'r', 't', 'return']","[0.5297701000235975, 1.0420236000791192, 1.1618792000226676, 1.313649700023234, 1.4584735999815166, 1.5538445999845862, 1.7539598001167178]",,,,,,,,,,,,,,,,,,,,,,,,,,,,,,,,,,,,10,001,G,2023_Jan_30_1448,student_TT_local,2021.1.4,60.067527911603314,
,None,None,None,None,None,None,None,None,None,None,divert,upkeep,19.5,20.5,video&audio/solemn_touch_edited.mp4,video&audio/Sentence2_touch_edited.mp4,solemn,meddle,None,,,,,,,,,,,0,8,8,25,,,,,,,,,,,,,,,,,,,,,,,,,,,,,,,,,,,,,,,,,,,,,,,,,,,,,,,,None, divert,"['d', 'i', 'v', 'e', 'r', 't', 'return']","[0.5032130999024957, 0.6471434000413865, 0.7677909999620169, 0.9035072000697255, 1.0079687000252306, 1.2556191000621766, 1.3916917000897229]",,,,,,,,,,,,,,,,,,,,,,,,,,,,,,,,,,,,10,001,G,2023_Jan_30_1448,student_TT_local,2021.1.4,60.067527911603314,
,None,None,None,None,None,None,None,None,None,None,linear,impose,19.5,20.5,video&audio/pulpit_touch_edited.mp4,video&audio/Sentence6_touch_edited.mp4,pulpit,girdle,None,,,,,,,,,,,0,9,9,23,,,,,,,,,,,,,,,,,,,,,,,,,,,,,,,,,,,,,,,,,,,,,,,,,,,,,,,,None, linear,"['l', 'i', 'n', 'e', 'a', 'r', 'return']","[0.5880156999919564, 0.7714271999429911, 0.9480290000792593, 1.0835802000947297, 1.323472100077197, 1.492674299981445, 1.7714848001487553]",,,,,,,,,,,,,,,,,,,,,,,,,,,,,,,,,,,,10,001,G,2023_Jan_30_1448,student_TT_local,2021.1.4,60.067527911603314,
,None,None,None,None,None,None,None,None,None,None,galley,strife,6.5,7.5,video&audio/debtor_TT_3X.mp4,video&audio/sentence2_TT_3X.mp4,debtor,delude,None,,,,,,,,,,,0,10,10,7,,,,,,,,,,,,,,,,,,,,,,,,,,,,,,,,,,,,,,,,,,,,,,,,,,,,,,,,None, galley,"['g', 'a', 'l', 'l', 'e', 'y', 'return']","[0.32505139987915754, 0.8450313999783248, 1.0607640999369323, 1.172836999874562, 1.3248950999695808, 1.445207699900493, 1.8133717000018805]",,,,,,,,,,,,,,,,,,,,,,,,,,,,,,,,,,,,10,001,G,2023_Jan_30_1448,student_TT_local,2021.1.4,60.067527911603314,
,None,None,None,None,None,None,None,None,None,None,shrill,brazen,19.5,20.5,video&audio/picket_touch_edited.mp4,video&audio/Sentence3_touch_edited.mp4,picket,caviar,None,,,,,,,,,,,0,11,11,20,,,,,,,,,,,,,,,,,,,,,,,,,,,,,,,,,,,,,,,,,,,,,,,,,,,,,,,,None, shrill,"['s', 'h', 'r', 'i', 'l', 'l', 'return']","[0.6781365999486297, 0.8142522000707686, 0.9821550999768078, 1.134353999979794, 1.3344517000950873, 1.4542992999777198, 1.6941442000679672]",,,,,,,,,,,,,,,,,,,,,,,,,,,,,,,,,,,,10,001,G,2023_Jan_30_1448,student_TT_local,2021.1.4,60.067527911603314,
,None,None,None,None,None,None,None,None,None,None,nettle,convoy,19.5,20.5,video&audio/matrix_touch_edited.mp4,video&audio/Sentence5_touch_edited.mp4,matrix,jailer,None,,,,,,,,,,,0,12,12,16,,,,,,,,,,,,,,,,,,,,,,,,,,,,,,,,,,,,,,,,,,,,,,,,,,,,,,,,None, nettle,"['n', 'e', 't', 't', 'l', 'e', 'return']","[0.5539456000551581, 0.6824543999973685, 0.8335583999287337, 1.0417096000164747, 1.1376387998461723, 1.2419704999774694, 1.394017699873075]",,,,,,,,,,,,,,,,,,,,,,,,,,,,,,,,,,,,10,001,G,2023_Jan_30_1448,student_TT_local,2021.1.4,60.067527911603314,
,"Remember to type as QUICKLY and ACCURATELY as possible after the 'get ready' prompt.

Ask the experimenter any questions now. Please put on the headphones.

You will get one practice trial. Press 'enter/return' when you are ready to start the practice.","Remember to type as QUICKLY and ACCURATELY as you can after the 'get ready' prompt.

Ask the experimenter any questions now. Please put on the headphones.

You will get one practice trial. Press 'enter/return' when you are ready to start the practice.",video&audio/Example_AOMI_total.png,1.8,0.7,None,None,None,None,None,ghetto,jargon,6.5,7.5,video&audio/botany_TT_3X.mp4,video&audio/sentence3_TT_3X.mp4,botany,oppose,None,,,,,,,,,,,0,13,13,2,,,,,,,,,,,,,,,,,,,,,,,,,,,,,,,,,,,,,,,,,,,,,,,,,,,,,,,,None, ghetto,"['g', 'h', 'e', 't', 't', 'o', 'return']","[0.37076590000651777, 0.5303077001590282, 0.8184848001692444, 1.0027664999943227, 1.1868006000295281, 1.2914494001306593, 1.6187415001913905]",,,,,,,,,,,,,,,,,,,,,,,,,,,,,,,,,,,,10,001,G,2023_Jan_30_1448,student_TT_local,2021.1.4,60.067527911603314,
,None,None,None,None,None,None,None,None,None,None,warble,fodder,19.5,20.5,video&audio/ritual_touch_edited.mp4,video&audio/Sentence1_touch_edited.mp4,ritual,mangle,None,,,,,,,,,,,0,14,14,24,,,,,,,,,,,,,,,,,,,,,,,,,,,,,,,,,,,,,,,,,,,,,,,,,,,,,,,,None, warble,"['w', 'a', 'r', 'b', 'l', 'e', 'return']","[0.5425450999755412, 0.6694116999860853, 0.8615200999192894, 1.1097484999336302, 1.2373990998603404, 1.3812216999940574, 1.7572084998246282]",,,,,,,,,,,,,,,,,,,,,,,,,,,,,,,,,,,,10,001,G,2023_Jan_30_1448,student_TT_local,2021.1.4,60.067527911603314,
,None,None,None,None,None,None,None,None,None,None,matron,legion,19.5,20.5,video&audio/subdue_touch_edited.mp4,video&audio/Sentence3_touch_edited.mp4,subdue,feudal,None,,,,,,,,,,,0,15,15,26,,,,,,,,,,,,,,,,,,,,,,,,,,,,,,,,,,,,,,,,,,,,,,,,,,,,,,,,None, matron,"['m', 'a', 't', 'r', 'o', 'n', 'return']","[0.49784069997258484, 0.6263433999847621, 0.8905311000999063, 1.0105485001113266, 1.1947258999571204, 1.986376800108701, 2.113888300023973]",,,,,,,,,,,,,,,,,,,,,,,,,,,,,,,,,,,,10,001,G,2023_Jan_30_1448,student_TT_local,2021.1.4,60.067527911603314,
,None,None,None,None,None,None,None,None,None,None,entail,novice,6.5,7.5,video&audio/confer_TT_3X.mp4,video&audio/sentence5_TT_3X.mp4,confer,primal,None,,,,,,,,,,,0,16,16,4,,,,,,,,,,,,,,,,,,,,,,,,,,,,,,,,,,,,,,,,,,,,,,,,,,,,,,,,None, entail,"['e', 'n', 't', 'a', 'i', 'l', 'return']","[0.5430764001794159, 0.7114077000878751, 0.8073537000454962, 0.9830348000396043, 1.095448900014162, 1.296129500027746, 1.5750271000433713]",,,,,,,,,,,,,,,,,,,,,,,,,,,,,,,,,,,,10,001,G,2023_Jan_30_1448,student_TT_local,2021.1.4,60.067527911603314,
,None,None,None,None,None,None,None,None,None,None,apathy,revolt,6.5,7.5,video&audio/cortex_TT_3X.mp4,video&audio/sentence6_TT_3X.mp4,cortex,joiner,None,,,,,,,,,,,0,17,17,5,,,,,,,,,,,,,,,,,,,,,,,,,,,,,,,,,,,,,,,,,,,,,,,,,,,,,,,,None, apathy,"['a', 'p', 'a', 't', 'h', 'y', 'return']","[0.4950276999734342, 0.6721298000775278, 1.0322515000589192, 1.583613800117746, 1.6711373999714851, 1.7679457999765873, 2.0550577000249177]",,,,,,,,,,,,,,,,,,,,,,,,,,,,,,,,,,,,10,001,G,2023_Jan_30_1448,student_TT_local,2021.1.4,60.067527911603314,
,None,None,None,None,None,None,None,None,None,None,portal,murmur,19.5,20.5,video&audio/neural_touch_edited.mp4,video&audio/Sentence6_touch_edited.mp4,neural,clergy,None,,,,,,,,,,,0,18,18,17,,,,,,,,,,,,,,,,,,,,,,,,,,,,,,,,,,,,,,,,,,,,,,,,,,,,,,,,None, portal,"['p', 'o', 'r', 't', 'a', 'l', 'return']","[0.5243859998881817, 0.6757302999030799, 0.861030199797824, 0.9964814998675138, 1.1805871999822557, 1.3075875998474658, 1.556114099919796]",,,,,,,,,,,,,,,,,,,,,,,,,,,,,,,,,,,,10,001,G,2023_Jan_30_1448,student_TT_local,2021.1.4,60.067527911603314,
,None,None,None,None,None,None,None,None,None,None,origin,coerce,19.5,20.5,video&audio/malady_touch_edited.mp4,video&audio/Sentence4_touch_edited.mp4,malady,tandem,None,,,,,,,,,,,0,19,19,15,,,,,,,,,,,,,,,,,,,,,,,,,,,,,,,,,,,,,,,,,,,,,,,,,,,,,,,,None, origin,"['o', 'r', 'i', 'g', 'i', 'n', 'return']","[0.6199284000322223, 0.7556956999469548, 0.8838738000486046, 1.0047643999569118, 1.091857000021264, 1.2443147001322359, 1.571768700145185]",,,,,,,,,,,,,,,,,,,,,,,,,,,,,,,,,,,,10,001,G,2023_Jan_30_1448,student_TT_local,2021.1.4,60.067527911603314,
,None,None,None,None,None,None,None,None,None,None,herbal,deduct,6.5,7.5,video&audio/kipper_TT_3X.mp4,video&audio/sentence3_TT_3X.mp4,kipper,hearth,None,,,,,,,,,,,0,20,20,14,,,,,,,,,,,,,,,,,,,,,,,,,,,,,,,,,,,,,,,,,,,,,,,,,,,,,,,,None, herbal,"['h', 'e', 'r', 'b', 'a', 'l', 'return']","[0.5561563998926431, 0.7152605999726802, 0.8036624998785555, 1.0194773999974132, 1.1232270000036806, 1.3076073999982327, 1.6276217999402434]",,,,,,,,,,,,,,,,,,,,,,,,,,,,,,,,,,,,10,001,G,2023_Jan_30_1448,student_TT_local,2021.1.4,60.067527911603314,
,None,None,None,None,None,None,None,None,None,None,fusion,critic,6.5,7.5,video&audio/forage_TT_3X.mp4,video&audio/sentence5_TT_3X.mp4,forage,zephyr,None,,,,,,,,,,,0,21,21,10,,,,,,,,,,,,,,,,,,,,,,,,,,,,,,,,,,,,,,,,,,,,,,,,,,,,,,,,None, fusion,"['f', 'u', 's', 'i', 'o', 'n', 'return']","[0.4074243998620659, 0.5511894000228494, 0.703969500027597, 0.7996433000080287, 0.9753135999199003, 1.1189011000096798, 1.3829512000083923]",,,,,,,,,,,,,,,,,,,,,,,,,,,,,,,,,,,,10,001,G,2023_Jan_30_1448,student_TT_local,2021.1.4,60.067527911603314,
,None,None,None,None,None,None,None,None,None,None,revoke,mirage,6.5,7.5,video&audio/covert_TT_3X.mp4,video&audio/sentence1_TT_3X.mp4,covert,shrewd,None,,,,,,,,,,,0,22,22,6,,,,,,,,,,,,,,,,,,,,,,,,,,,,,,,,,,,,,,,,,,,,,,,,,,,,,,,,None, revoke,"['r', 'e', 'v', 'o', 'k', 'e', 'return']","[0.39332969998940825, 0.5131367000285536, 0.7772965999320149, 1.137186300009489, 1.2816496000159532, 1.3537556999363005, 1.545624200021848]",,,,,,,,,,,,,,,,,,,,,,,,,,,,,,,,,,,,10,001,G,2023_Jan_30_1448,student_TT_local,2021.1.4,60.067527911603314,
,None,None,None,None,None,None,None,None,None,None,tamper,sonnet,6.5,7.5,video&audio/hippie_TT_3X.mp4,video&audio/sentence1_TT_3X.mp4,hippie,innate,None,,,,,,,,,,,0,23,23,12,,,,,,,,,,,,,,,,,,,,,,,,,,,,,,,,,,,,,,,,,,,,,,,,,,,,,,,,None, tamper,"['t', 'a', 'm', 'bracketleft', 'e', 'backspace', 'backspace', 'p', 'e', 'r', 'return']","[0.2936197000090033, 0.5895267000887543, 0.7416830000001937, 0.909516500076279, 0.9893120999913663, 1.357780900085345, 1.493561299983412, 2.061291899997741, 2.1741188000887632, 2.2540472999680787, 2.406391500029713]",,,,,,,,,,,,,,,,,,,,,,,,,,,,,,,,,,,,10,001,G,2023_Jan_30_1448,student_TT_local,2021.1.4,60.067527911603314,
,None,None,None,None,None,None,None,None,None,None,ordain,potent,6.5,7.5,video&audio/jackal_TT_3X.mp4,video&audio/sentence2_TT_3X.mp4,jackal,septic,None,,,,,,,,,,,0,24,24,13,,,,,,,,,,,,,,,,,,,,,,,,,,,,,,,,,,,,,,,,,,,,,,,,,,,,,,,,None, ordain,"['o', 'r', 'd', 'a', 'i', 'n', 'return']","[0.5597621998749673, 0.670788399875164, 0.8628638000227511, 0.9672499999869615, 1.079137200023979, 1.2147857998497784, 1.4948565000668168]",,,,,,,,,,,,,,,,,,,,,,,,,,,,,,,,,,,,10,001,G,2023_Jan_30_1448,student_TT_local,2021.1.4,60.067527911603314,
,None,None,None,None,None,None,None,None,None,None,shroud,sherry,6.5,7.5,video&audio/falter_TT_3X.mp4,video&audio/sentence4_TT_3X.mp4,falter,hamlet,None,,,,,,,,,,,0,25,25,9,,,,,,,,,,,,,,,,,,,,,,,,,,,,,,,,,,,,,,,,,,,,,,,,,,,,,,,,None, shroud,"['s', 'h', 'r', 'o', 'u', 'd', 'return']","[0.5654025000985712, 0.6937907000537962, 0.8134417000692338, 0.9654314999934286, 1.158207600004971, 1.4456263000611216, 1.7093539000488818]",,,,,,,,,,,,,,,,,,,,,,,,,,,,,,,,,,,,10,001,G,2023_Jan_30_1448,student_TT_local,2021.1.4,60.067527911603314,
,None,None,None,None,None,None,None,None,None,None,mussel,satire,19.5,20.5,video&audio/piston_touch_edited.mp4,video&audio/Sentence4_touch_edited.mp4,piston,induce,None,,,,,,,,,,,0,26,26,21,,,,,,,,,,,,,,,,,,,,,,,,,,,,,,,,,,,,,,,,,,,,,,,,,,,,,,,,None, mussel,"['m', 'u', 's', 's', 'e', 'l', 'return']","[0.5018005999736488, 0.7253115999046713, 0.8538464000448585, 0.9900483000092208, 1.1817008000798523, 1.2613989000674337, 1.5015630999114364]",,,,,,,,,,,,,,,,,,,,,,,,,,,,,,,,,,,,10,001,G,2023_Jan_30_1448,student_TT_local,2021.1.4,60.067527911603314,
,None,None,None,None,None,None,None,None,None,None,mystic,infirm,6.5,7.5,video&audio/cervix_TT_3X.mp4,video&audio/sentence4_TT_3X.mp4,cervix,oblige,None,,,,,,,,,,,0,27,27,3,,,,,,,,,,,,,,,,,,,,,,,,,,,,,,,,,,,,,,,,,,,,,,,,,,,,,,,,None, mystic,"['m', 'y', 's', 't', 'i', 'c', 'return']","[0.4673207998275757, 0.7317738998681307, 0.8754288998898119, 1.0679585000034422, 1.18759709992446, 1.3474670997820795, 1.5555135998874903]",,,,,,,,,,,,,,,,,,,,,,,,,,,,,,,,,,,,10,001,G,2023_Jan_30_1448,student_TT_local,2021.1.4,60.067527911603314,
,None,None,None,None,None,None,None,None,None,None,uphold,pursue,19.5,20.5,video&audio/obsess_touch_edited.mp4,video&audio/Sentence1_touch_edited.mp4,obsess,output,None,,,,,,,,,,,0,28,28,18,,,,,,,,,,,,,,,,,,,,,,,,,,,,,,,,,,,,,,,,,,,,,,,,,,,,,,,,None, uphold,"['u', 'p', 'h', 'o', 'l', 'd', 'return']","[0.7515850001946092, 0.903480299981311, 1.2951225000433624, 1.4232116001658142, 1.5831628001760691, 1.7110493001528084, 1.8954519999679178]",,,,,,,,,,,,,,,,,,,,,,,,,,,,,,,,,,,,10,001,G,2023_Jan_30_1448,student_TT_local,2021.1.4,60.067527911603314,
,"While you watch the video, imagine yourself typing the word on the screen, like how you did in the imagery practice. While you watch the video and imagine this, rest your hands on your keyboard but DO NOT type until AFTER you see the typing prompt.

Press 'enter/return' to go to the next page.","While watching the video, imagine yourself typing the word on the screen, like how you did in the imagery practice. While you watch the video and imagine this, rest your hands on your keyboard but DO NOT type until AFTER you see the typing prompt.

Press 'enter/return' to go to the next page.",video&audio/Example_AOMI_imagine.png,1.6,1,butter,6.5,7.5,video&audio/butter_TT_3X.mp4,video&audio/amount_TT_3X.mp4,eatery,plight,6.5,7.5,video&audio/belfry_TT_3X.mp4,video&audio/sentence2_TT_3X.mp4,belfry,metric,2 = AOMIgen,,,,,,,,,,,0,29,29,1,,,,,,,,,,,,,,,,,,,,,,,,,,,,,,,,,,,,,,,,,,,,,,,,,,,,,,,,None, eatery,"['e', 'a', 't', 'e', 'r', 'y', 'bracketright', 'backspace', 'return']","[0.46554360003210604, 0.5850207000039518, 0.7852288000285625, 0.9132857001386583, 1.0808166000060737, 1.1529127000831068, 1.4329596001189202, 2.1544825001619756, 2.2573222999926656]",,,,,,,,,,,,,,,,,,,,,,,,,,,,,,,,,,,,10,001,G,2023_Jan_30_1448,student_TT_local,2021.1.4,60.067527911603314,
,,,,,,,,,,,,,,,,,,,,typingRatingScale.png,"How would you rate your typing performance in the previous section?

Press a number on your keyboard according to the rating scale below to give your answer. Your first answer will be accepted.",,,,,,,,,,,,,0,0,0,0,,,,,,,,,,,,,,,,,,,,,,,,,,,,,,,,,,,,,,,,,,,,,,,,,,,,,,,,['3'],[29.10896209999919],,,,,,,,,,,,,,,,,,,,,,,,,,,,,,,,,,10,001,G,2023_Jan_30_1448,student_TT_local,2021.1.4,60.067527911603314,
,,,,,,,,,,,,,,,,,,,,imageryCheckScale.png,"In the previous section did you imagine yourself typing?

Press a number on your keyboard according to the rating scale below to give your answer. Your first answer will be accepted.",,,,,,,,,,,,,0,1,1,1,,,,,,,,,,,,,,,,,,,,,,,,,,,,,,,,,,,,,,,,,,,,,,,,,,,,,,,,['3'],[7.8684878998901695],,,,,,,,,,,,,,,,,,,,,,,,,,,,,,,,,,10,001,G,2023_Jan_30_1448,student_TT_local,2021.1.4,60.067527911603314,
,None,None,None,None,None,None,None,None,None,None,uphold,pursue,19.5,20.5,video&audio/obsess_touch_edited.mp4,video&audio/Sentence1_touch_edited.mp4,obsess,output,None,,,,,,,,,,,,,,,,,,,,,,,,,,,0,0,0,18,,,,,,,,,,,,,,,,,,,,,,,,,,,,,,,,,,,,,,,,,,,,,,None,['o'],"['u', 't', 't', 'e', 'r', 'return']","[1.6834247999358922, 1.8982891000341624, 2.0983251000288874, 2.2020152998156846, 2.3220067999791354, 2.6905075998511165]",None,[0.5595744999591261], obsess,"['o', 'b', 's', 'e', 's', 's', 'return']","[0.8011996999848634, 1.0409689999651164, 1.225004900014028, 1.4406459999736398, 1.69688449986279, 1.8408581998664886, 2.1450564998667687]",,,,,,,,,,,,,,,,,,,,,,,,,10,001,G,2023_Jan_30_1448,student_TT_local,2021.1.4,60.067527911603314,
,"This is Section 2.

In this section, your task will be the same as before - that is, to type the word you see on the screen after the typing prompt. However, rather than just seeing the word before typing, you will also see a video of someone typing the same word you will need to type at various speeds. 

Press 'enter/return' to go to the next page.","This is Section 4. 

In this section, your task will be the same as before - that is, to type the word you see on the screen after the typing prompt. You will see a video again, like in Section 2, only this time, the video will show someone typing different words to what you must type at various speeds. 

Press 'enter/return' to go to the next page.",video&audio/Example_AOMI_layout.png,1.6,0.6,afford,19.5,20.5,video&audio/afford_touch_edited.mp4,video&audio/amount_touch_edited.mp4,breach,vanity,6.5,7.5,video&audio/ascend_TT_3X.mp4,video&audio/sentence1_TT_3X.mp4,ascend,hinder,1 = AOMIspec,,,,,,,,,,,,,,,,,,,,,,,,,,,0,1,1,0,,,,,,,,,,,,,,,,,,,,,,,,,,,,,,,,,,,,,,,,,,,,,,,None,,,None,, ascend,"['a', 's', 'c', 'e', 'n', 'd', 'return']","[0.7996055001858622, 1.247191800037399, 1.4628165001049638, 1.591513000195846, 1.7189249000512064, 2.022762500215322, 2.262772100046277]",,,,,,,,,,,,,,,,,,,,,,,,,10,001,G,2023_Jan_30_1448,student_TT_local,2021.1.4,60.067527911603314,
,None,None,None,None,None,None,None,None,None,None,divert,upkeep,19.5,20.5,video&audio/solemn_touch_edited.mp4,video&audio/Sentence2_touch_edited.mp4,solemn,meddle,None,,,,,,,,,,,,,,,,,,,,,,,,,,,0,2,2,25,,,,,,,,,,,,,,,,,,,,,,,,,,,,,,,,,,,,,,,,,,,,,,,None,,,['return'],, solemn,"['s', 'o', 'l', 'e', 'm', 'n', 'return']","[0.47403149981983006, 0.635055199963972, 0.8261831998825073, 1.0022734999656677, 1.1307921998668462, 1.2818958000279963, 1.674178099958226]",[0.09055720013566315],,,,,,,,,,,,,,,,,,,,,,,,10,001,G,2023_Jan_30_1448,student_TT_local,2021.1.4,60.067527911603314,
,None,None,None,None,None,None,None,None,None,None,portal,murmur,19.5,20.5,video&audio/neural_touch_edited.mp4,video&audio/Sentence6_touch_edited.mp4,neural,clergy,None,,,,,,,,,,,,,,,,,,,,,,,,,,,0,3,3,17,,,,,,,,,,,,,,,,,,,,,,,,,,,,,,,,,,,,,,,,,,,,,,,None,,,None,, neural,"['n', 'e', 'u', 'r', 'a', 'l', 'return']","[0.7366005000658333, 0.9203626001253724, 1.0334892000537366, 1.1444802000187337, 1.272403199924156, 2.0725924000144005, 2.3119368001352996]",,,,,,,,,,,,,,,,,,,,,,,,,10,001,G,2023_Jan_30_1448,student_TT_local,2021.1.4,60.067527911603314,
,None,None,None,None,None,None,None,None,None,None,origin,coerce,19.5,20.5,video&audio/malady_touch_edited.mp4,video&audio/Sentence4_touch_edited.mp4,malady,tandem,None,,,,,,,,,,,,,,,,,,,,,,,,,,,0,4,4,15,,,,,,,,,,,,,,,,,,,,,,,,,,,,,,,,,,,,,,,,,,,,,,,None,,,None,, malady,"['m', 'a', 'l', 'a', 'd', 'y', 'return']","[0.8167074997909367, 0.9677962998393923, 1.1123733997810632, 1.1998393998946995, 1.3604229998309165, 1.503880999982357, 1.840097100008279]",,,,,,,,,,,,,,,,,,,,,,,,,10,001,G,2023_Jan_30_1448,student_TT_local,2021.1.4,60.067527911603314,
,None,None,None,None,None,None,None,None,None,None,revoke,mirage,6.5,7.5,video&audio/covert_TT_3X.mp4,video&audio/sentence1_TT_3X.mp4,covert,shrewd,None,,,,,,,,,,,,,,,,,,,,,,,,,,,0,5,5,6,,,,,,,,,,,,,,,,,,,,,,,,,,,,,,,,,,,,,,,,,,,,,,,None,,,None,, covert,"['c', 'o', 'v', 'e', 'r', 'return']","[0.9632348001468927, 1.099118100013584, 1.2034185000229627, 1.3158436000812799, 1.4510614001192153, 1.7872953999321908]",,,,,,,,,,,,,,,,,,,,,,,,,10,001,G,2023_Jan_30_1448,student_TT_local,2021.1.4,60.067527911603314,
,None,None,None,None,None,None,None,None,None,None,shroud,sherry,6.5,7.5,video&audio/falter_TT_3X.mp4,video&audio/sentence4_TT_3X.mp4,falter,hamlet,None,,,,,,,,,,,,,,,,,,,,,,,,,,,0,6,6,9,,,,,,,,,,,,,,,,,,,,,,,,,,,,,,,,,,,,,,,,,,,,,,,None,,,None,, falter,"['f', 'a', 'l', 'e', 'backspace', 't', 'e', 'r', 'return']","[0.5966513999737799, 0.7474087001755834, 0.8516564001329243, 1.1794198001734912, 1.5726147000677884, 1.931559800170362, 2.0834370001684874, 2.188200999982655, 2.3717353001702577]",,,,,,,,,,,,,,,,,,,,,,,,,10,001,G,2023_Jan_30_1448,student_TT_local,2021.1.4,60.067527911603314,
,None,None,None,None,None,None,None,None,None,None,ration,parole,6.5,7.5,video&audio/devise_TT_3X.mp4,video&audio/sentence3_TT_3X.mp4,devise,befall,None,,,,,,,,,,,,,,,,,,,,,,,,,,,0,7,7,8,,,,,,,,,,,,,,,,,,,,,,,,,,,,,,,,,,,,,,,,,,,,,,,None,,,None,, devise,"['d', 'e', 'v', 'i', 's', 'e', 'return']","[0.6734245999250561, 0.7858529998920858, 1.0333807000424713, 1.1782779998611659, 1.2834250999148935, 1.410005799960345, 1.602503899950534]",,,,,,,,,,,,,,,,,,,,,,,,,10,001,G,2023_Jan_30_1448,student_TT_local,2021.1.4,60.067527911603314,
,None,None,None,None,None,None,None,None,None,None,shrill,brazen,19.5,20.5,video&audio/picket_touch_edited.mp4,video&audio/Sentence3_touch_edited.mp4,picket,caviar,None,,,,,,,,,,,,,,,,,,,,,,,,,,,0,8,8,20,,,,,,,,,,,,,,,,,,,,,,,,,,,,,,,,,,,,,,,,,,,,,,,None,,,None,, picket,"['p', 'i', 'c', 'k', 'e', 't', 'return']","[0.6254738999996334, 0.8410968000534922, 1.009295199997723, 1.1455292000900954, 1.217456999933347, 1.4259735001251101, 1.5856387000530958]",,,,,,,,,,,,,,,,,,,,,,,,,10,001,G,2023_Jan_30_1448,student_TT_local,2021.1.4,60.067527911603314,
,"While you watch the video, imagine yourself typing the word on the screen, like how you did in the imagery practice. While you watch the video and imagine this, rest your hands on your keyboard but DO NOT type until AFTER you see the typing prompt.

Press 'enter/return' to go to the next page.","While watching the video, imagine yourself typing the word on the screen, like how you did in the imagery practice. While you watch the video and imagine this, rest your hands on your keyboard but DO NOT type until AFTER you see the typing prompt.

Press 'enter/return' to go to the next page.",video&audio/Example_AOMI_imagine.png,1.6,1,butter,6.5,7.5,video&audio/butter_TT_3X.mp4,video&audio/amount_TT_3X.mp4,eatery,plight,6.5,7.5,video&audio/belfry_TT_3X.mp4,video&audio/sentence2_TT_3X.mp4,belfry,metric,2 = AOMIgen,,,,,,,,,,,,,,,,,,,,,,,,,,,0,9,9,1,,,,,,,,,,,,,,,,,,,,,,,,,,,,,,,,,,,,,,,,,,,,,,,None,,,None,, belfry,"['b', 'e', 'l', 'f', 'r', 'y', 'return']","[0.7943108000326902, 0.9213286000303924, 1.065902499947697, 1.2172858999110758, 1.3852425999939442, 1.5065486000385135, 1.8894563999492675]",,,,,,,,,,,,,,,,,,,,,,,,,10,001,G,2023_Jan_30_1448,student_TT_local,2021.1.4,60.067527911603314,
,None,None,None,None,None,None,None,None,None,None,export,savant,19.5,20.5,video&audio/parcel_touch_edited.mp4,video&audio/Sentence2_touch_edited.mp4,parcel,cobble,None,,,,,,,,,,,,,,,,,,,,,,,,,,,0,10,10,19,,,,,,,,,,,,,,,,,,,,,,,,,,,,,,,,,,,,,,,,,,,,,,,None,,,None,, parcel,"['p', 'a', 'r', 'c', 'e', 'l', 'return']","[0.482478299876675, 0.619199899956584, 0.8103161999024451, 1.0505685999523848, 1.1545412000268698, 1.3147982999216765, 1.5304558998905122]",,,,,,,,,,,,,,,,,,,,,,,,,10,001,G,2023_Jan_30_1448,student_TT_local,2021.1.4,60.067527911603314,
,None,None,None,None,None,None,None,None,None,None,mystic,infirm,6.5,7.5,video&audio/cervix_TT_3X.mp4,video&audio/sentence4_TT_3X.mp4,cervix,oblige,None,,,,,,,,,,,,,,,,,,,,,,,,,,,0,11,11,3,,,,,,,,,,,,,,,,,,,,,,,,,,,,,,,,,,,,,,,,,,,,,,,None,,,None,, cervix,"['c', 'e', 'r', 'v', 'i', 'x', 'return']","[0.5940600999165326, 0.7304652999155223, 0.9060726999305189, 2.018142799846828, 2.4182961999904364, 2.513932199915871, 2.690432099858299]",,,,,,,,,,,,,,,,,,,,,,,,,10,001,G,2023_Jan_30_1448,student_TT_local,2021.1.4,60.067527911603314,
,None,None,None,None,None,None,None,None,None,None,nettle,convoy,19.5,20.5,video&audio/matrix_touch_edited.mp4,video&audio/Sentence5_touch_edited.mp4,matrix,jailer,None,,,,,,,,,,,,,,,,,,,,,,,,,,,0,12,12,16,,,,,,,,,,,,,,,,,,,,,,,,,,,,,,,,,,,,,,,,,,,,,,,None,,,None,, matrix,"['m', 'a', 't', 'r', 'i', 'x', 'return']","[0.6819164999760687, 0.8420808000955731, 1.3378211001399904, 1.4583101000171155, 1.5939331999979913, 2.2019069001544267, 2.29041160014458]",,,,,,,,,,,,,,,,,,,,,,,,,10,001,G,2023_Jan_30_1448,student_TT_local,2021.1.4,60.067527911603314,
,None,None,None,None,None,None,None,None,None,None,linear,impose,19.5,20.5,video&audio/pulpit_touch_edited.mp4,video&audio/Sentence6_touch_edited.mp4,pulpit,girdle,None,,,,,,,,,,,,,,,,,,,,,,,,,,,0,13,13,23,,,,,,,,,,,,,,,,,,,,,,,,,,,,,,,,,,,,,,,,,,,,,,,None,,,None,, pulpit,"['p', 'u', 'p', 'backspace', 'l', 'p', 'i', 't', 'return']","[1.4037148000206798, 1.5558541000355035, 1.772263800026849, 2.1954572000540793, 2.5632666000165045, 2.787415200145915, 2.9793529000598937, 3.0994001999497414, 3.371755799977109]",,,,,,,,,,,,,,,,,,,,,,,,,10,001,G,2023_Jan_30_1448,student_TT_local,2021.1.4,60.067527911603314,
,None,None,None,None,None,None,None,None,None,None,ordain,potent,6.5,7.5,video&audio/jackal_TT_3X.mp4,video&audio/sentence2_TT_3X.mp4,jackal,septic,None,,,,,,,,,,,,,,,,,,,,,,,,,,,0,14,14,13,,,,,,,,,,,,,,,,,,,,,,,,,,,,,,,,,,,,,,,,,,,,,,,None,,,None,, jackal,"['j', 'a', 'c', 'k', 'a', 'l', 'return']","[0.6432866000104696, 0.7878090001177043, 0.955436100019142, 1.0993181001394987, 1.1949539000634104, 1.3391154001001269, 1.5873299001250416]",,,,,,,,,,,,,,,,,,,,,,,,,10,001,G,2023_Jan_30_1448,student_TT_local,2021.1.4,60.067527911603314,
,None,None,None,None,None,None,None,None,None,None,gullet,manure,19.5,20.5,video&audio/tariff_touch_edited.mp4,video&audio/Sentence5_touch_edited.mp4,tariff,parish,None,,,,,,,,,,,,,,,,,,,,,,,,,,,0,15,15,28,,,,,,,,,,,,,,,,,,,,,,,,,,,,,,,,,,,,,,,,,,,,,,,None,,,None,, tariff,"['t', 'a', 'r', 'i', 'f', 'f', 'return']","[0.9587195999920368, 1.1663730998989195, 1.3430617998819798, 1.566601499915123, 1.7101751000154763, 1.8468633000738919, 1.974790700012818]",,,,,,,,,,,,,,,,,,,,,,,,,10,001,G,2023_Jan_30_1448,student_TT_local,2021.1.4,60.067527911603314,
,None,None,None,None,None,None,None,None,None,None,mucous,musket,19.5,20.5,video&audio/plasma_touch_edited.mp4,video&audio/Sentence5_touch_edited.mp4,plasma,fungal,None,,,,,,,,,,,,,,,,,,,,,,,,,,,0,16,16,22,,,,,,,,,,,,,,,,,,,,,,,,,,,,,,,,,,,,,,,,,,,,,,,None,,,None,, plasma,"['p', 'l', 'a', 's', 'm', 'a', 'return']","[0.5606521998997778, 0.7284917999058962, 0.880333699984476, 1.0162152999546379, 1.1767029999755323, 1.288697199895978, 1.5682875998318195]",,,,,,,,,,,,,,,,,,,,,,,,,10,001,G,2023_Jan_30_1448,student_TT_local,2021.1.4,60.067527911603314,
,None,None,None,None,None,None,None,None,None,None,herbal,deduct,6.5,7.5,video&audio/kipper_TT_3X.mp4,video&audio/sentence3_TT_3X.mp4,kipper,hearth,None,,,,,,,,,,,,,,,,,,,,,,,,,,,0,17,17,14,,,,,,,,,,,,,,,,,,,,,,,,,,,,,,,,,,,,,,,,,,,,,,,None,,,None,, kipper,"['k', 'i', 'p', 'p', 'e', 'r', 'return']","[0.758699500001967, 0.9421792000066489, 1.1184047001879662, 1.2466074000112712, 1.4060896001756191, 1.5184076000005007, 1.6701772001106292]",,,,,,,,,,,,,,,,,,,,,,,,,10,001,G,2023_Jan_30_1448,student_TT_local,2021.1.4,60.067527911603314,
,None,None,None,None,None,None,None,None,None,None,allure,binder,19.5,20.5,video&audio/virile_touch_edited.mp4,video&audio/Sentence6_touch_edited.mp4,virile,campus,None,,,,,,,,,,,,,,,,,,,,,,,,,,,0,18,18,29,,,,,,,,,,,,,,,,,,,,,,,,,,,,,,,,,,,,,,,,,,,,,,,None,,,None,, virile,"['v', 'i', 'r', 'i', 'l', 'e', 'return']","[0.7460451000370085, 0.8825098001398146, 1.0339880001265556, 1.1549474000930786, 1.3384503000415862, 1.449965100036934, 1.5864469001535326]",,,,,,,,,,,,,,,,,,,,,,,,,10,001,G,2023_Jan_30_1448,student_TT_local,2021.1.4,60.067527911603314,
,"Remember to type as QUICKLY and ACCURATELY as possible after the 'get ready' prompt.

Ask the experimenter any questions now. Please put on the headphones.

You will get one practice trial. Press 'enter/return' when you are ready to start the practice.","Remember to type as QUICKLY and ACCURATELY as you can after the 'get ready' prompt.

Ask the experimenter any questions now. Please put on the headphones.

You will get one practice trial. Press 'enter/return' when you are ready to start the practice.",video&audio/Example_AOMI_total.png,1.8,0.7,None,None,None,None,None,ghetto,jargon,6.5,7.5,video&audio/botany_TT_3X.mp4,video&audio/sentence3_TT_3X.mp4,botany,oppose,None,,,,,,,,,,,,,,,,,,,,,,,,,,,0,19,19,2,,,,,,,,,,,,,,,,,,,,,,,,,,,,,,,,,,,,,,,,,,,,,,,None,,,None,, botany,"['b', 'p', 't', 'a', 'backspace', 'backspace', 'backspace', 'o', 't', 'a', 'n', 'y', 'return']","[0.7690169000998139, 0.9214280999731272, 1.2174986999016255, 1.401411599945277, 1.6970675999764353, 1.8095106000546366, 1.9053952998947352, 2.5534944999963045, 2.7537104000803083, 2.9056371999904513, 3.02508409996517, 3.1136274999007583, 3.498082600068301]",,,,,,,,,,,,,,,,,,,,,,,,,10,001,G,2023_Jan_30_1448,student_TT_local,2021.1.4,60.067527911603314,
,None,None,None,None,None,None,None,None,None,None,mussel,satire,19.5,20.5,video&audio/piston_touch_edited.mp4,video&audio/Sentence4_touch_edited.mp4,piston,induce,None,,,,,,,,,,,,,,,,,,,,,,,,,,,0,20,20,21,,,,,,,,,,,,,,,,,,,,,,,,,,,,,,,,,,,,,,,,,,,,,,,None,,,None,, piston,"['p', 'i', 's', 't', 'o', 'n', 'return']","[0.6142025000881404, 0.8222171000670642, 0.9584139999933541, 1.1820890000090003, 1.286323299864307, 1.438322199974209, 1.5665241000242531]",,,,,,,,,,,,,,,,,,,,,,,,,10,001,G,2023_Jan_30_1448,student_TT_local,2021.1.4,60.067527911603314,
,None,None,None,None,None,None,None,None,None,None,entail,novice,6.5,7.5,video&audio/confer_TT_3X.mp4,video&audio/sentence5_TT_3X.mp4,confer,primal,None,,,,,,,,,,,,,,,,,,,,,,,,,,,0,21,21,4,,,,,,,,,,,,,,,,,,,,,,,,,,,,,,,,,,,,,,,,,,,,,,,None,,,None,, confer,"['c', 'o', 'n', 'f', 'e', 'r', 'return']","[0.6952059001196176, 0.8002729001455009, 0.9753557001240551, 1.087787700118497, 1.199652099981904, 1.3113329000771046, 1.6556542001198977]",,,,,,,,,,,,,,,,,,,,,,,,,10,001,G,2023_Jan_30_1448,student_TT_local,2021.1.4,60.067527911603314,
,None,None,None,None,None,None,None,None,None,None,matron,legion,19.5,20.5,video&audio/subdue_touch_edited.mp4,video&audio/Sentence3_touch_edited.mp4,subdue,feudal,None,,,,,,,,,,,,,,,,,,,,,,,,,,,0,22,22,26,,,,,,,,,,,,,,,,,,,,,,,,,,,,,,,,,,,,,,,,,,,,,,,None,,,None,, subdue,"['s', 'u', 'b', 'd', 'u', 'e', 'return']","[1.1310845999978483, 1.2435481001157314, 1.4353092000819743, 1.5552938000764698, 1.7080884999595582, 1.8350804999936372, 2.0915224000345916]",,,,,,,,,,,,,,,,,,,,,,,,,10,001,G,2023_Jan_30_1448,student_TT_local,2021.1.4,60.067527911603314,
,None,None,None,None,None,None,None,None,None,None,ethnic,goblet,19.5,20.5,video&audio/subtle_touch_edited.mp4,video&audio/Sentence4_touch_edited.mp4,subtle,trench,None,,,,,,,,,,,,,,,,,,,,,,,,,,,0,23,23,27,,,,,,,,,,,,,,,,,,,,,,,,,,,,,,,,,,,,,,,,,,,,,,,None,,,None,, subtle,"['s', 'u', 'b', 't', 'l', 'e', 'return']","[0.9464443998876959, 1.0666181000415236, 1.234215300064534, 1.3543312998954207, 1.4743049999233335, 1.5704391000326723, 1.9626911000814289]",,,,,,,,,,,,,,,,,,,,,,,,,10,001,G,2023_Jan_30_1448,student_TT_local,2021.1.4,60.067527911603314,
,None,None,None,None,None,None,None,None,None,None,apathy,revolt,6.5,7.5,video&audio/cortex_TT_3X.mp4,video&audio/sentence6_TT_3X.mp4,cortex,joiner,None,,,,,,,,,,,,,,,,,,,,,,,,,,,0,24,24,5,,,,,,,,,,,,,,,,,,,,,,,,,,,,,,,,,,,,,,,,,,,,,,,None,,,None,, cortex,"['c', 'p', 'backspace', 'o', 'r', 't', 'e', 'x', 'return']","[1.8243661001324654, 2.0635472000576556, 2.74394220020622, 3.2477193002123386, 3.3276888001710176, 3.480160600040108, 3.6478746000211686, 3.9757813999895006, 4.391732000047341]",,,,,,,,,,,,,,,,,,,,,,,,,10,001,G,2023_Jan_30_1448,student_TT_local,2021.1.4,60.067527911603314,
,None,None,None,None,None,None,None,None,None,None,galley,strife,6.5,7.5,video&audio/debtor_TT_3X.mp4,video&audio/sentence2_TT_3X.mp4,debtor,delude,None,,,,,,,,,,,,,,,,,,,,,,,,,,,0,25,25,7,,,,,,,,,,,,,,,,,,,,,,,,,,,,,,,,,,,,,,,,,,,,,,,None,,,None,, debtor,"['d', 'e', 'b', 't', 'o', 'r', 'return']","[0.8580798001494259, 0.9457480001728982, 1.0816360001917928, 1.2103279000148177, 1.3702382000628859, 1.4581420000176877, 1.8099041001405567]",,,,,,,,,,,,,,,,,,,,,,,,,10,001,G,2023_Jan_30_1448,student_TT_local,2021.1.4,60.067527911603314,
,None,None,None,None,None,None,None,None,None,None,fusion,critic,6.5,7.5,video&audio/forage_TT_3X.mp4,video&audio/sentence5_TT_3X.mp4,forage,zephyr,None,,,,,,,,,,,,,,,,,,,,,,,,,,,0,26,26,10,,,,,,,,,,,,,,,,,,,,,,,,,,,,,,,,,,,,,,,,,,,,,,,None,,,None,, forage,"['f', 'o', 'r', 'a', 'g', 'e', 'return']","[0.7395169001538306, 0.8587329001165926, 0.9956596000120044, 1.1470570000819862, 1.3390726000070572, 1.4508186001330614, 1.706899099983275]",,,,,,,,,,,,,,,,,,,,,,,,,10,001,G,2023_Jan_30_1448,student_TT_local,2021.1.4,60.067527911603314,
,None,None,None,None,None,None,None,None,None,None,tamper,sonnet,6.5,7.5,video&audio/hippie_TT_3X.mp4,video&audio/sentence1_TT_3X.mp4,hippie,innate,None,,,,,,,,,,,,,,,,,,,,,,,,,,,0,27,27,12,,,,,,,,,,,,,,,,,,,,,,,,,,,,,,,,,,,,,,,,,,,,,,,None,,,None,, hippie,"['h', 'i', 'p', 'p', 'i', 'e', 'return']","[0.7966386000625789, 0.9162351998966187, 1.0925151000265032, 1.2440911999437958, 1.412114700069651, 1.6043126001022756, 1.8040475000161678]",,,,,,,,,,,,,,,,,,,,,,,,,10,001,G,2023_Jan_30_1448,student_TT_local,2021.1.4,60.067527911603314,
,None,None,None,None,None,None,None,None,None,None,warble,fodder,19.5,20.5,video&audio/ritual_touch_edited.mp4,video&audio/Sentence1_touch_edited.mp4,ritual,mangle,None,,,,,,,,,,,,,,,,,,,,,,,,,,,0,28,28,24,,,,,,,,,,,,,,,,,,,,,,,,,,,,,,,,,,,,,,,,,,,,,,,None,,,None,, ritual,"['r', 'i', 't', 'u', 'l', 'backspace', 'a', 'l', 'return']","[1.0992387998849154, 1.2121723999734968, 1.3633433999493718, 1.4673248999752104, 1.755285199964419, 2.139778699958697, 2.291341299889609, 2.4351751999929547, 2.739473700057715]",,,,,,,,,,,,,,,,,,,,,,,,,10,001,G,2023_Jan_30_1448,student_TT_local,2021.1.4,60.067527911603314,
,None,None,None,None,None,None,None,None,None,None,defame,quarry,6.5,7.5,video&audio/frugal_TT_3X.mp4,video&audio/sentence6_TT_3X.mp4,frugal,patent,None,,,,,,,,,,,,,,,,,,,,,,,,,,,0,29,29,11,,,,,,,,,,,,,,,,,,,,,,,,,,,,,,,,,,,,,,,,,,,,,,,None,,,None,, frugal,"['f', 'r', 'u', 'g', 'a', 'backspace', 'backspace', 'backspace', 'r', 'u', 'g', 'a', 'l', 'return']","[0.9399921998847276, 0.9564616999123245, 1.1481413000728935, 1.483744899975136, 1.6283599000889808, 1.9478631000965834, 2.084098400082439, 2.204221999971196, 2.979797299951315, 3.1005051000975072, 3.2127322000451386, 3.3718540999107063, 3.692712400108576, 3.987821799935773]",,,,,,,,,,,,,,,,,,,,,,,,,10,001,G,2023_Jan_30_1448,student_TT_local,2021.1.4,60.067527911603314,
,,,,,,,,,,,,,,,,,,,,typingRatingScale.png,"How would you rate your typing performance in the previous section?

Press a number on your keyboard according to the rating scale below to give your answer. Your first answer will be accepted.",,,,,,,,,,,,,,,,,,,,,,,,,,,,,0,0,0,0,,,,,,,,,,,,,,,,,,,,,,,,,,,,,,,,,,,,,,,,,,,,,,,,,,,,['3'],[4.8204221001360565],,,,,,,,,,,,,,,,,,,,,,10,001,G,2023_Jan_30_1448,student_TT_local,2021.1.4,60.067527911603314,
,,,,,,,,,,,,,,,,,,,,visualImageryScale.png,"While imagining yourself typing, how clear was your visual image?

Press a number on your keyboard according to the rating scale below to give your answer. Your first answer will be accepted.",,,,,,,,,,,,,,,,,,,,,,,,,,,,,0,1,1,1,,,,,,,,,,,,,,,,,,,,,,,,,,,,,,,,,,,,,,,,,,,,,,,,,,,,['2'],[13.408305400051177],,,,,,,,,,,,,,,,,,,,,,10,001,G,2023_Jan_30_1448,student_TT_local,2021.1.4,60.067527911603314,
,,,,,,,,,,,,,,,,,,,,kinestheticImageryScale.png,"While imagining yourself typing, how intense were the sensations associated with the imagined movement?

Press a number on your keyboard according to the rating scale below to give your answer. Your first answer will be accepted.",,,,,,,,,,,,,,,,,,,,,,,,,,,,,0,2,2,2,,,,,,,,,,,,,,,,,,,,,,,,,,,,,,,,,,,,,,,,,,,,,,,,,,,,['2'],[5.10478729987517],,,,,,,,,,,,,,,,,,,,,,10,001,G,2023_Jan_30_1448,student_TT_local,2021.1.4,60.067527911603314,
,"While you watch the video, imagine yourself typing the word on the screen, like how you did in the imagery practice. While you watch the video and imagine this, rest your hands on your keyboard but DO NOT type until AFTER you see the typing prompt.

Press 'enter/return' to go to the next page.","While watching the video, imagine yourself typing the word on the screen, like how you did in the imagery practice. While you watch the video and imagine this, rest your hands on your keyboard but DO NOT type until AFTER you see the typing prompt.

Press 'enter/return' to go to the next page.",video&audio/Example_AOMI_imagine.png,1.6,1,butter,6.5,7.5,video&audio/butter_TT_3X.mp4,video&audio/amount_TT_3X.mp4,eatery,plight,6.5,7.5,video&audio/belfry_TT_3X.mp4,video&audio/sentence2_TT_3X.mp4,belfry,metric,2 = AOMIgen,,,,,,,,,,,,,,,,,,,,,,,,,,,,,,,,,,,,,,,,,,,0,0,0,1,,,,,,,,,,,,,,,,,,,,,,,,,,,,,,,,,,,,,,,,,,1514.0441649998538,1520.5524647999555,None, butter,"['b', 'u', 't', 't', 'e', 'r', 'return']","[0.767651200061664, 0.9513820998836309, 1.2553588999435306, 1.4157183999195695, 1.5364377000369132, 1.639776200056076, 1.783928700024262]",1561.9995840999763,1568.50380639988,None, plight,"['p', 'l', 'i', 'g', 'h', 't', 'return']","[0.6387072999496013, 0.7906291000545025, 1.0144984999205917, 1.1430792000610381, 1.2387989999260753, 1.342606500023976, 1.4947931999340653]",,,,,,,,,,10,001,G,2023_Jan_30_1448,student_TT_local,2021.1.4,60.067527911603314,
,None,None,None,None,None,None,None,None,None,None,linear,impose,19.5,20.5,video&audio/pulpit_touch_edited.mp4,video&audio/Sentence6_touch_edited.mp4,pulpit,girdle,None,,,,,,,,,,,,,,,,,,,,,,,,,,,,,,,,,,,,,,,,,,,0,1,1,23,,,,,,,,,,,,,,,,,,,,,,,,,,,,,,,,,,,,,,,,,,,,,,,,1571.0424255998805,1590.5599337997846,None, impose,"['i', 'm', 'p', 'o', 's', 'e', 'return']","[0.8176752000581473, 0.9701294000260532, 1.1543841999955475, 1.2977100999560207, 1.4502016000915319, 1.65765820001252, 1.7618905999697745]",,,,,,,,,,10,001,G,2023_Jan_30_1448,student_TT_local,2021.1.4,60.067527911603314,
,"This is Section 2.

In this section, your task will be the same as before - that is, to type the word you see on the screen after the typing prompt. However, rather than just seeing the word before typing, you will also see a video of someone typing the same word you will need to type at various speeds. 

Press 'enter/return' to go to the next page.","This is Section 4. 

In this section, your task will be the same as before - that is, to type the word you see on the screen after the typing prompt. You will see a video again, like in Section 2, only this time, the video will show someone typing different words to what you must type at various speeds. 

Press 'enter/return' to go to the next page.",video&audio/Example_AOMI_layout.png,1.6,0.6,afford,19.5,20.5,video&audio/afford_touch_edited.mp4,video&audio/amount_touch_edited.mp4,breach,vanity,6.5,7.5,video&audio/ascend_TT_3X.mp4,video&audio/sentence1_TT_3X.mp4,ascend,hinder,1 = AOMIspec,,,,,,,,,,,,,,,,,,,,,,,,,,,,,,,,,,,,,,,,,,,0,2,2,0,,,,,,,,,,,,,,,,,,,,,,,,,,,,,,,,,,,,,,,,,,,,,,,,1593.3553403997794,1599.8759354997892,None, vanity,"['b', 'backspace', 'v', 'a', 'n', 'i', 't', 'y', 'return']","[1.4291289998218417, 1.989183299941942, 2.1247736997902393, 2.23717310000211, 2.349157099844888, 2.461709599941969, 2.60547239985317, 2.69305649981834, 2.996927799889818]",,,,,,,,,,10,001,G,2023_Jan_30_1448,student_TT_local,2021.1.4,60.067527911603314,
,None,None,None,None,None,None,None,None,None,None,mystic,infirm,6.5,7.5,video&audio/cervix_TT_3X.mp4,video&audio/sentence4_TT_3X.mp4,cervix,oblige,None,,,,,,,,,,,,,,,,,,,,,,,,,,,,,,,,,,,,,,,,,,,0,3,3,3,,,,,,,,,,,,,,,,,,,,,,,,,,,,,,,,,,,,,,,,,,,,,,,,1603.9052792999428,1610.4306065998971,None, infirm,"['i', 'n', 'f', 'i', 'r', 'm', 'return']","[0.4374493998475373, 0.5818499999586493, 0.7093436999712139, 0.8374337998684496, 0.9581251998897642, 1.0693200000096112, 1.5738108998630196]",,,,,,,,,,10,001,G,2023_Jan_30_1448,student_TT_local,2021.1.4,60.067527911603314,
,None,None,None,None,None,None,None,None,None,None,matron,legion,19.5,20.5,video&audio/subdue_touch_edited.mp4,video&audio/Sentence3_touch_edited.mp4,subdue,feudal,None,,,,,,,,,,,,,,,,,,,,,,,,,,,,,,,,,,,,,,,,,,,0,4,4,26,,,,,,,,,,,,,,,,,,,,,,,,,,,,,,,,,,,,,,,,,,,,,,,,1613.0240686999168,1632.5299069997855,None, legion,"['l', 'e', 'g', 'i', 'o', 'n', 'return']","[0.6075091999955475, 0.7750256999861449, 0.9113515000790358, 1.0393427000381052, 1.1833956001792103, 1.2791897000279278, 1.4311947000678629]",,,,,,,,,,10,001,G,2023_Jan_30_1448,student_TT_local,2021.1.4,60.067527911603314,
,None,None,None,None,None,None,None,None,None,None,shrill,brazen,19.5,20.5,video&audio/picket_touch_edited.mp4,video&audio/Sentence3_touch_edited.mp4,picket,caviar,None,,,,,,,,,,,,,,,,,,,,,,,,,,,,,,,,,,,,,,,,,,,0,5,5,20,,,,,,,,,,,,,,,,,,,,,,,,,,,,,,,,,,,,,,,,,,,,,,,,1635.0257352998015,1654.5400720997714,None, brazen,"['b', 'r', 'q', 'backspace', 'a', 'x', 'backspace', 'z', 'e', 'n', 'return']","[0.4606637000106275, 0.581288899993524, 0.9248136000242084, 1.3813891999889165, 1.5251639999914914, 1.7327023998368531, 2.173384299967438, 2.3010457998607308, 2.532618099823594, 2.6293209998402745, 3.037158199818805]",,,,,,,,,,10,001,G,2023_Jan_30_1448,student_TT_local,2021.1.4,60.067527911603314,
,None,None,None,None,None,None,None,None,None,None,allure,binder,19.5,20.5,video&audio/virile_touch_edited.mp4,video&audio/Sentence6_touch_edited.mp4,virile,campus,None,,,,,,,,,,,,,,,,,,,,,,,,,,,,,,,,,,,,,,,,,,,0,6,6,29,,,,,,,,,,,,,,,,,,,,,,,,,,,,,,,,,,,,,,,,,,,,,,,,1658.635582699906,1678.155513699865,None, binder,"['b', 'i', 'n', 'd', 'e', 'r', 'return']","[1.1320215999148786, 1.244751499965787, 1.388097699964419, 1.5321521000005305, 1.6122139000799507, 1.7645123999100178, 2.1641547000035644]",,,,,,,,,,10,001,G,2023_Jan_30_1448,student_TT_local,2021.1.4,60.067527911603314,
,None,None,None,None,None,None,None,None,None,None,entail,novice,6.5,7.5,video&audio/confer_TT_3X.mp4,video&audio/sentence5_TT_3X.mp4,confer,primal,None,,,,,,,,,,,,,,,,,,,,,,,,,,,,,,,,,,,,,,,,,,,0,7,7,4,,,,,,,,,,,,,,,,,,,,,,,,,,,,,,,,,,,,,,,,,,,,,,,,1681.3624617999885,1687.8768223999068,None, novice,"['n', 'o', 'v', 'i', 'c', 'e', 'return']","[0.7666358000133187, 0.9267275000456721, 1.0468452998902649, 1.1586476999800652, 1.2945282000582665, 1.4151468998752534, 1.7514402999076992]",,,,,,,,,,10,001,G,2023_Jan_30_1448,student_TT_local,2021.1.4,60.067527911603314,
,None,None,None,None,None,None,None,None,None,None,apathy,revolt,6.5,7.5,video&audio/cortex_TT_3X.mp4,video&audio/sentence6_TT_3X.mp4,cortex,joiner,None,,,,,,,,,,,,,,,,,,,,,,,,,,,,,,,,,,,,,,,,,,,0,8,8,5,,,,,,,,,,,,,,,,,,,,,,,,,,,,,,,,,,,,,,,,,,,,,,,,1690.655470999889,1697.1593150999397,None, revolt,"['r', 'e', 'v', 'o', 'l', 't', 'return']","[0.7552161999046803, 0.8911427999846637, 1.0829932000488043, 1.1714828999247402, 1.3311886000446975, 1.4509300999343395, 1.6113535000476986]",,,,,,,,,,10,001,G,2023_Jan_30_1448,student_TT_local,2021.1.4,60.067527911603314,
,None,None,None,None,None,None,None,None,None,None,ethnic,goblet,19.5,20.5,video&audio/subtle_touch_edited.mp4,video&audio/Sentence4_touch_edited.mp4,subtle,trench,None,,,,,,,,,,,,,,,,,,,,,,,,,,,,,,,,,,,,,,,,,,,0,9,9,27,,,,,,,,,,,,,,,,,,,,,,,,,,,,,,,,,,,,,,,,,,,,,,,,1699.811301099835,1719.3275732998736,None, goblet,"['g', 'o', 'b', 'l', 'e', 't', 'return']","[0.7636017000768334, 0.875885299872607, 0.9955963999964297, 1.1314717999193817, 1.2112296998966485, 1.3474409999325871, 1.6519903999287635]",,,,,,,,,,10,001,G,2023_Jan_30_1448,student_TT_local,2021.1.4,60.067527911603314,
,None,None,None,None,None,None,None,None,None,None,ration,parole,6.5,7.5,video&audio/devise_TT_3X.mp4,video&audio/sentence3_TT_3X.mp4,devise,befall,None,,,,,,,,,,,,,,,,,,,,,,,,,,,,,,,,,,,,,,,,,,,0,10,10,8,,,,,,,,,,,,,,,,,,,,,,,,,,,,,,,,,,,,,,,,,,,,,,,,1740.9274871998932,1747.4413984999992,None, parole,"['p', 'a', 'r', 'o', 'l', 'e', 'return']","[1.000695699825883, 1.2085978998802602, 1.3689504999201745, 1.4977038998622447, 1.6327594998292625, 1.7205344999674708, 1.8166096999775618]",,,,,,,,,,10,001,G,2023_Jan_30_1448,student_TT_local,2021.1.4,60.067527911603314,
,None,None,None,None,None,None,None,None,None,None,gullet,manure,19.5,20.5,video&audio/tariff_touch_edited.mp4,video&audio/Sentence5_touch_edited.mp4,tariff,parish,None,,,,,,,,,,,,,,,,,,,,,,,,,,,,,,,,,,,,,,,,,,,0,11,11,28,,,,,,,,,,,,,,,,,,,,,,,,,,,,,,,,,,,,,,,,,,,,,,,,1750.3043265999295,1769.8177663998213,None, manure,"['m', 'a', 'n', 'u', 'i', 'r', 'e', 'backspace', 'backspace', 'backspace', 'r', 'e', 'return']","[0.6571337999776006, 0.8571635000407696, 0.9615807998925447, 1.0969793000258505, 1.121024199994281, 1.2093923999927938, 1.2974370999727398, 1.6657026999164373, 1.8255872998852283, 1.945047799963504, 2.035317099886015, 2.105070000048727, 2.2335276000667363]",,,,,,,,,,10,001,G,2023_Jan_30_1448,student_TT_local,2021.1.4,60.067527911603314,
,None,None,None,None,None,None,None,None,None,None,warble,fodder,19.5,20.5,video&audio/ritual_touch_edited.mp4,video&audio/Sentence1_touch_edited.mp4,ritual,mangle,None,,,,,,,,,,,,,,,,,,,,,,,,,,,,,,,,,,,,,,,,,,,0,12,12,24,,,,,,,,,,,,,,,,,,,,,,,,,,,,,,,,,,,,,,,,,,,,,,,,1773.0940828998573,1792.5996760998387,None, fodder,"['f', 'o', 'd', 'd', 'e', 'r', 'return']","[1.0857371999882162, 1.2300709001719952, 1.549539800034836, 1.7333158999681473, 1.8617985001765192, 1.998274700017646, 2.2058488000184298]",,,,,,,,,,10,001,G,2023_Jan_30_1448,student_TT_local,2021.1.4,60.067527911603314,
,"Remember to type as QUICKLY and ACCURATELY as possible after the 'get ready' prompt.

Ask the experimenter any questions now. Please put on the headphones.

You will get one practice trial. Press 'enter/return' when you are ready to start the practice.","Remember to type as QUICKLY and ACCURATELY as you can after the 'get ready' prompt.

Ask the experimenter any questions now. Please put on the headphones.

You will get one practice trial. Press 'enter/return' when you are ready to start the practice.",video&audio/Example_AOMI_total.png,1.8,0.7,None,None,None,None,None,ghetto,jargon,6.5,7.5,video&audio/botany_TT_3X.mp4,video&audio/sentence3_TT_3X.mp4,botany,oppose,None,,,,,,,,,,,,,,,,,,,,,,,,,,,,,,,,,,,,,,,,,,,0,13,13,2,,,,,,,,,,,,,,,,,,,,,,,,,,,,,,,,,,,,,,,,,,,,,,,,1795.8479065999854,1802.3547649998218,None, jargon,"['j', 'a', 'r', 'g', 'h', 'o', 'n', 'backspace', 'backspace', 'backspace', 'o', 'n', 'return']","[0.8703248000238091, 0.9821688998490572, 1.3179432000033557, 1.5339516999665648, 1.5419985000044107, 1.614318500040099, 1.7981290000025183, 2.110118899960071, 2.2381253999192268, 2.366423900006339, 3.086331499973312, 3.182542899856344, 3.4382102999370545]",,,,,,,,,,10,001,G,2023_Jan_30_1448,student_TT_local,2021.1.4,60.067527911603314,
,None,None,None,None,None,None,None,None,None,None,divert,upkeep,19.5,20.5,video&audio/solemn_touch_edited.mp4,video&audio/Sentence2_touch_edited.mp4,solemn,meddle,None,,,,,,,,,,,,,,,,,,,,,,,,,,,,,,,,,,,,,,,,,,,0,14,14,25,,,,,,,,,,,,,,,,,,,,,,,,,,,,,,,,,,,,,,,,,,,,,,,,1806.8484841999598,1826.3555317998398,None, upkeep,"['u', 'p', 'k', 'e', 'r', 'backspace', 'e', 'p', 'return']","[0.7975974997971207, 0.9725380998570472, 1.1328621997963637, 1.2691939999349415, 1.2775049000047147, 1.8131901000160724, 1.9725092998705804, 2.1974003999494016, 2.541063299868256]",,,,,,,,,,10,001,G,2023_Jan_30_1448,student_TT_local,2021.1.4,60.067527911603314,
,None,None,None,None,None,None,None,None,None,None,shroud,sherry,6.5,7.5,video&audio/falter_TT_3X.mp4,video&audio/sentence4_TT_3X.mp4,falter,hamlet,None,,,,,,,,,,,,,,,,,,,,,,,,,,,,,,,,,,,,,,,,,,,0,15,15,9,,,,,,,,,,,,,,,,,,,,,,,,,,,,,,,,,,,,,,,,,,,,,,,,1829.9263825998642,1836.4406499997713,None, sherry,"['s', 'h', 'e', 'r', 'r', 'y', 'return']","[0.7202595002017915, 0.8403030000627041, 1.0092233000323176, 1.3280048000160605, 1.4804335001390427, 1.5921478001400828, 1.9615217000246048]",,,,,,,,,,10,001,G,2023_Jan_30_1448,student_TT_local,2021.1.4,60.067527911603314,
,None,None,None,None,None,None,None,None,None,None,uphold,pursue,19.5,20.5,video&audio/obsess_touch_edited.mp4,video&audio/Sentence1_touch_edited.mp4,obsess,output,None,,,,,,,,,,,,,,,,,,,,,,,,,,,,,,,,,,,,,,,,,,,0,16,16,18,,,,,,,,,,,,,,,,,,,,,,,,,,,,,,,,,,,,,,,,,,,,,,,,1839.4408520997968,1858.939918199787,None, pursue,"['p', 'u', 'r', 's', 'u', 'e', 'return']","[0.8857380000408739, 2.3095497998874635, 2.4137850999832153, 2.621599999954924, 2.7736873000394553, 2.861581299919635, 3.0376548999920487]",,,,,,,,,,10,001,G,2023_Jan_30_1448,student_TT_local,2021.1.4,60.067527911603314,
,None,None,None,None,None,None,None,None,None,None,portal,murmur,19.5,20.5,video&audio/neural_touch_edited.mp4,video&audio/Sentence6_touch_edited.mp4,neural,clergy,None,,,,,,,,,,,,,,,,,,,,,,,,,,,,,,,,,,,,,,,,,,,0,17,17,17,,,,,,,,,,,,,,,,,,,,,,,,,,,,,,,,,,,,,,,,,,,,,,,,1863.0400912999175,1882.5540636999067,None, murmur,"['m', 'u', 'r', 'm', 'u', 'r', 'return']","[0.8224444000516087, 1.022338500013575, 1.1420318000018597, 1.7582173000555485, 2.1179382998961955, 2.230049500009045, 2.3901173998601735]",,,,,,,,,,10,001,G,2023_Jan_30_1448,student_TT_local,2021.1.4,60.067527911603314,
,None,None,None,None,None,None,None,None,None,None,fusion,critic,6.5,7.5,video&audio/forage_TT_3X.mp4,video&audio/sentence5_TT_3X.mp4,forage,zephyr,None,,,,,,,,,,,,,,,,,,,,,,,,,,,,,,,,,,,,,,,,,,,0,18,18,10,,,,,,,,,,,,,,,,,,,,,,,,,,,,,,,,,,,,,,,,,,,,,,,,1885.9709799999837,1892.4709238999058,None, critic,"['c', 'r', 'i', 't', 'i', 'c', 'return']","[0.741367100039497, 0.9812863001134247, 1.1411963000427932, 1.2057860000059009, 1.3170201000757515, 1.4131305001210421, 1.5574588999152184]",,,,,,,,,,10,001,G,2023_Jan_30_1448,student_TT_local,2021.1.4,60.067527911603314,
,None,None,None,None,None,None,None,None,None,None,defame,quarry,6.5,7.5,video&audio/frugal_TT_3X.mp4,video&audio/sentence6_TT_3X.mp4,frugal,patent,None,,,,,,,,,,,,,,,,,,,,,,,,,,,,,,,,,,,,,,,,,,,0,19,19,11,,,,,,,,,,,,,,,,,,,,,,,,,,,,,,,,,,,,,,,,,,,,,,,,1895.0785460998304,1901.5948253998067,None, quarry,"['q', 'u', 'a', 'r', 'r', 'y', 'return']","[1.1842076999600977, 1.3683539000339806, 1.4405540998559445, 1.6722009999211878, 1.8083790000528097, 1.8961902000010014, 2.1920451999176294]",,,,,,,,,,10,001,G,2023_Jan_30_1448,student_TT_local,2021.1.4,60.067527911603314,
,None,None,None,None,None,None,None,None,None,None,revoke,mirage,6.5,7.5,video&audio/covert_TT_3X.mp4,video&audio/sentence1_TT_3X.mp4,covert,shrewd,None,,,,,,,,,,,,,,,,,,,,,,,,,,,,,,,,,,,,,,,,,,,0,20,20,6,,,,,,,,,,,,,,,,,,,,,,,,,,,,,,,,,,,,,,,,,,,,,,,,1920.655561799882,1927.170150599908,None, mirage,"['m', 'i', 'r', 'a', 'g', 'e', 'return']","[0.6232604999095201, 0.7993043998721987, 0.9431811000686139, 1.1193752998951823, 1.2314061999786645, 1.3433818998746574, 1.535163199994713]",,,,,,,,,,10,001,G,2023_Jan_30_1448,student_TT_local,2021.1.4,60.067527911603314,
,None,None,None,None,None,None,None,None,None,None,origin,coerce,19.5,20.5,video&audio/malady_touch_edited.mp4,video&audio/Sentence4_touch_edited.mp4,malady,tandem,None,,,,,,,,,,,,,,,,,,,,,,,,,,,,,,,,,,,,,,,,,,,0,21,21,15,,,,,,,,,,,,,,,,,,,,,,,,,,,,,,,,,,,,,,,,,,,,,,,,1929.7460991998669,1949.2589461999014,None, coerce,"['c', 'o', 'e', 'r', 'c', 'e', 'return']","[1.0268002999946475, 1.786737299989909, 1.890855300007388, 1.978950799908489, 2.2027598000131547, 2.3231466999277472, 2.4588130998890847]",,,,,,,,,,10,001,G,2023_Jan_30_1448,student_TT_local,2021.1.4,60.067527911603314,
,None,None,None,None,None,None,None,None,None,None,export,savant,19.5,20.5,video&audio/parcel_touch_edited.mp4,video&audio/Sentence2_touch_edited.mp4,parcel,cobble,None,,,,,,,,,,,,,,,,,,,,,,,,,,,,,,,,,,,,,,,,,,,0,22,22,19,,,,,,,,,,,,,,,,,,,,,,,,,,,,,,,,,,,,,,,,,,,,,,,,1952.7685745998751,1972.280103399884,None, savant,"['s', 'v', 'a', 'backspace', 'backspace', 'a', 'v', 'a', 'n', 't', 'return']","[1.0430516998749226, 1.5789067998994142, 1.6908185998909175, 2.203046599868685, 2.3310014000162482, 2.603275700006634, 2.723241899861023, 2.836351800011471, 2.9389235998969525, 3.5068057999014854, 3.7708103000186384]",,,,,,,,,,10,001,G,2023_Jan_30_1448,student_TT_local,2021.1.4,60.067527911603314,
,None,None,None,None,None,None,None,None,None,None,nettle,convoy,19.5,20.5,video&audio/matrix_touch_edited.mp4,video&audio/Sentence5_touch_edited.mp4,matrix,jailer,None,,,,,,,,,,,,,,,,,,,,,,,,,,,,,,,,,,,,,,,,,,,0,23,23,16,,,,,,,,,,,,,,,,,,,,,,,,,,,,,,,,,,,,,,,,,,,,,,,,1977.0909124999307,1996.6071257998701,None, convoy,"['c', 'o', 'n', 'v', 'o', 'y', 'return']","[0.9956378999631852, 1.1320309001021087, 1.3235708000138402, 1.4438567000906914, 1.5795201000291854, 1.7080214000307024, 2.0602480999659747]",,,,,,,,,,10,001,G,2023_Jan_30_1448,student_TT_local,2021.1.4,60.067527911603314,
,None,None,None,None,None,None,None,None,None,None,mussel,satire,19.5,20.5,video&audio/piston_touch_edited.mp4,video&audio/Sentence4_touch_edited.mp4,piston,induce,None,,,,,,,,,,,,,,,,,,,,,,,,,,,,,,,,,,,,,,,,,,,0,24,24,21,,,,,,,,,,,,,,,,,,,,,,,,,,,,,,,,,,,,,,,,,,,,,,,,1999.691107999999,2019.197126199957,None, satire,"['s', 'a', 't', 'i', 'r', 'e', 'return']","[0.9202517000958323, 1.0323020999785513, 1.2643774000462145, 1.3917628999333829, 1.5043575998861343, 1.5841153000947088, 2.087981899967417]",,,,,,,,,,10,001,G,2023_Jan_30_1448,student_TT_local,2021.1.4,60.067527911603314,
,None,None,None,None,None,None,None,None,None,None,ordain,potent,6.5,7.5,video&audio/jackal_TT_3X.mp4,video&audio/sentence2_TT_3X.mp4,jackal,septic,None,,,,,,,,,,,,,,,,,,,,,,,,,,,,,,,,,,,,,,,,,,,0,25,25,13,,,,,,,,,,,,,,,,,,,,,,,,,,,,,,,,,,,,,,,,,,,,,,,,2022.3415504998993,2028.8553008998279,None, potent,"['p', 'o', 't', 'e', 'n', 't', 'return']","[0.689651100197807, 0.8499259001109749, 0.9933917999733239, 1.0819951000157744, 1.2175967001821846, 1.305677300086245, 1.4982117000035942]",,,,,,,,,,10,001,G,2023_Jan_30_1448,student_TT_local,2021.1.4,60.067527911603314,
,None,None,None,None,None,None,None,None,None,None,mucous,musket,19.5,20.5,video&audio/plasma_touch_edited.mp4,video&audio/Sentence5_touch_edited.mp4,plasma,fungal,None,,,,,,,,,,,,,,,,,,,,,,,,,,,,,,,,,,,,,,,,,,,0,26,26,22,,,,,,,,,,,,,,,,,,,,,,,,,,,,,,,,,,,,,,,,,,,,,,,,2031.3850634999108,2050.898004199844,None, musket,"['m', 'u', 's', 'k', 'e', 't', 'return']","[0.6523368000052869, 0.9478748000692576, 1.1158467000350356, 1.1958078001625836, 1.3318779000546783, 1.5008517999667674, 1.7078843000344932]",,,,,,,,,,10,001,G,2023_Jan_30_1448,student_TT_local,2021.1.4,60.067527911603314,
,None,None,None,None,None,None,None,None,None,None,herbal,deduct,6.5,7.5,video&audio/kipper_TT_3X.mp4,video&audio/sentence3_TT_3X.mp4,kipper,hearth,None,,,,,,,,,,,,,,,,,,,,,,,,,,,,,,,,,,,,,,,,,,,0,27,27,14,,,,,,,,,,,,,,,,,,,,,,,,,,,,,,,,,,,,,,,,,,,,,,,,2053.64022309985,2060.1535962999333,None, deduct,"['d', 'e', 'd', 'u', 'c', 't', 'return']","[0.8157085001002997, 0.919619900174439, 1.0633921001572162, 1.2791351000778377, 1.304239199962467, 1.9919321001507342, 2.3671560999937356]",,,,,,,,,,10,001,G,2023_Jan_30_1448,student_TT_local,2021.1.4,60.067527911603314,
,None,None,None,None,None,None,None,None,None,None,galley,strife,6.5,7.5,video&audio/debtor_TT_3X.mp4,video&audio/sentence2_TT_3X.mp4,debtor,delude,None,,,,,,,,,,,,,,,,,,,,,,,,,,,,,,,,,,,,,,,,,,,0,28,28,7,,,,,,,,,,,,,,,,,,,,,,,,,,,,,,,,,,,,,,,,,,,,,,,,2063.5648356999736,2070.0801126000006,None, strife,"['s', 't', 'r', 'i', 'f', 'e', 'return']","[0.6893870998173952, 0.9296901999041438, 1.544915199978277, 2.1616149998735636, 2.2977571999654174, 2.393492099829018, 2.569217699812725]",,,,,,,,,,10,001,G,2023_Jan_30_1448,student_TT_local,2021.1.4,60.067527911603314,
,None,None,None,None,None,None,None,None,None,None,tamper,sonnet,6.5,7.5,video&audio/hippie_TT_3X.mp4,video&audio/sentence1_TT_3X.mp4,hippie,innate,None,,,,,,,,,,,,,,,,,,,,,,,,,,,,,,,,,,,,,,,,,,,0,29,29,12,,,,,,,,,,,,,,,,,,,,,,,,,,,,,,,,,,,,,,,,,,,,,,,,2073.6845688999165,2080.191033099778,None, sonnet,"['s', 'o', 'n', 'n', 'e', 't', 'return']","[1.1266922000795603, 1.2549127000384033, 1.446542900055647, 1.5587738000322133, 1.6549591000657529, 1.7751068999059498, 1.926747800083831]",,,,,,,,,,10,001,G,2023_Jan_30_1448,student_TT_local,2021.1.4,60.067527911603314,
,,,,,,,,,,,,,,,,,,,,typingRatingScale.png,"How would you rate your typing performance in the previous section?

Press a number on your keyboard according to the rating scale below to give your answer. Your first answer will be accepted.",,,,,,,,,,,,,,,,,,,,,,,,,,,,,,,,,,,,,,,,,,,,,0,0,0,0,,,,,,,,,,,,,,,,,,,,,,,,,,,,,,,,,,,,,,,,,,,,,,,,,,['2'],[3.6200465001165867],,,,,,,,10,001,G,2023_Jan_30_1448,student_TT_local,2021.1.4,60.067527911603314,
,,,,,,,,,,,,,,,,,,,,imageryCheckScale.png,"In the previous section did you imagine yourself typing?

Press a number on your keyboard according to the rating scale below to give your answer. Your first answer will be accepted.",,,,,,,,,,,,,,,,,,,,,,,,,,,,,,,,,,,,,,,,,,,,,0,1,1,1,,,,,,,,,,,,,,,,,,,,,,,,,,,,,,,,,,,,,,,,,,,,,,,,,,['1'],[5.982439399929717],,,,,,,,10,001,G,2023_Jan_30_1448,student_TT_local,2021.1.4,60.067527911603314,
,None,None,None,None,None,None,None,None,None,None,defame,quarry,6.5,7.5,video&audio/frugal_TT_3X.mp4,video&audio/sentence6_TT_3X.mp4,frugal,patent,None,,,,,,,,,,,,,,,,,,,,,,,,,,,,,,,,,,,,,,,,,,,,,,,,,,,,,,,,,,,0,0,0,11,,,,,,,,,,,,,,,None,"['b', 'u', 't', 't', 'e', 'r', 'return']","[0.676961800083518, 0.8135985999833792, 1.0452914000488818, 1.1652409001253545, 1.6450124999973923, 1.8220673999749124, 1.9255061999429017]",,,,,,,,,,,,,,,,,,,,,,,None,None, patent,"['p', 'a', 't', 'e', 'n', 't', 'return']","[0.7450149999931455, 0.8413428000640124, 1.048901499947533, 1.1377109999302775, 1.2737294998951256, 1.3693525998387486, 1.5381443998776376]",,,10,001,G,2023_Jan_30_1448,student_TT_local,2021.1.4,60.067527911603314,
,None,None,None,None,None,None,None,None,None,None,origin,coerce,19.5,20.5,video&audio/malady_touch_edited.mp4,video&audio/Sentence4_touch_edited.mp4,malady,tandem,None,,,,,,,,,,,,,,,,,,,,,,,,,,,,,,,,,,,,,,,,,,,,,,,,,,,,,,,,,,,0,1,1,15,,,,,,,,,,,,,,,None,,,,,,,,,,,,,,,,,,,,,,,,,,None, tandem,"['t', 'a', 'n', 'd', 'e', 'm', 'return']","[0.8347261999733746, 0.9714172999374568, 1.2347699999809265, 1.378637099871412, 1.443666399922222, 1.5548077998682857, 1.810839399928227]",,,10,001,G,2023_Jan_30_1448,student_TT_local,2021.1.4,60.067527911603314,
,None,None,None,None,None,None,None,None,None,None,uphold,pursue,19.5,20.5,video&audio/obsess_touch_edited.mp4,video&audio/Sentence1_touch_edited.mp4,obsess,output,None,,,,,,,,,,,,,,,,,,,,,,,,,,,,,,,,,,,,,,,,,,,,,,,,,,,,,,,,,,,0,2,2,18,,,,,,,,,,,,,,,None,,,,,,,,,,,,,,,,,,,,,,,,,,None, output,"['o', 'u', 't', 'p', 'u', 't', 'return']","[1.2008441998623312, 1.3529605998191983, 1.6091924998909235, 1.7851172999944538, 2.000684699974954, 2.1370732998475432, 2.4089805998373777]",,,10,001,G,2023_Jan_30_1448,student_TT_local,2021.1.4,60.067527911603314,
,None,None,None,None,None,None,None,None,None,None,herbal,deduct,6.5,7.5,video&audio/kipper_TT_3X.mp4,video&audio/sentence3_TT_3X.mp4,kipper,hearth,None,,,,,,,,,,,,,,,,,,,,,,,,,,,,,,,,,,,,,,,,,,,,,,,,,,,,,,,,,,,0,3,3,14,,,,,,,,,,,,,,,None,,,,,,,,,,,,,,,,,,,,,,,,,,None, hearth,"['h', 'e', 'a', 'r', 't', 'h', 'return']","[0.7086098999716341, 0.8208284999709576, 0.9166625998914242, 1.0763404997996986, 1.2602504999376833, 1.3490312998183072, 1.5728537999093533]",,,10,001,G,2023_Jan_30_1448,student_TT_local,2021.1.4,60.067527911603314,
,None,None,None,None,None,None,None,None,None,None,allure,binder,19.5,20.5,video&audio/virile_touch_edited.mp4,video&audio/Sentence6_touch_edited.mp4,virile,campus,None,,,,,,,,,,,,,,,,,,,,,,,,,,,,,,,,,,,,,,,,,,,,,,,,,,,,,,,,,,,0,4,4,29,,,,,,,,,,,,,,,None,,,,,,,,,,,,,,,,,,,,,,,,,,None, campus,"['c', 'a', 'm', 'p', 'u', 'i', 's', 'backspace', 'backspace', 's', 'return']","[0.601778700016439, 0.7941630999557674, 1.4499124998692423, 1.6658836998976767, 1.8977536999154836, 1.9136602999642491, 2.00212339987047, 2.4585525000002235, 2.6101643999572843, 2.7541087998542935, 2.9306055998895317]",,,10,001,G,2023_Jan_30_1448,student_TT_local,2021.1.4,60.067527911603314,
,None,None,None,None,None,None,None,None,None,None,linear,impose,19.5,20.5,video&audio/pulpit_touch_edited.mp4,video&audio/Sentence6_touch_edited.mp4,pulpit,girdle,None,,,,,,,,,,,,,,,,,,,,,,,,,,,,,,,,,,,,,,,,,,,,,,,,,,,,,,,,,,,0,5,5,23,,,,,,,,,,,,,,,None,,,,,,,,,,,,,,,,,,,,,,,,,,None, girdle,"['g', 'i', 'r', 'l', 'backspace', 'd', 'l', 'e', 'return']","[0.8686526999808848, 1.0047391999978572, 1.1323347000870854, 1.3407151000574231, 1.6766620001289994, 1.7887965999543667, 1.8924139000009745, 2.012455699965358, 2.3006333000957966]",,,10,001,G,2023_Jan_30_1448,student_TT_local,2021.1.4,60.067527911603314,
,None,None,None,None,None,None,None,None,None,None,shrill,brazen,19.5,20.5,video&audio/picket_touch_edited.mp4,video&audio/Sentence3_touch_edited.mp4,picket,caviar,None,,,,,,,,,,,,,,,,,,,,,,,,,,,,,,,,,,,,,,,,,,,,,,,,,,,,,,,,,,,0,6,6,20,,,,,,,,,,,,,,,None,,,,,,,,,,,,,,,,,,,,,,,,,,None, caviar,"['c', 'a', 'v', 'o', 'backspace', 'i', 'a', 'return']","[0.5842668002005666, 0.7521658001933247, 0.8796211001463234, 1.088058700086549, 1.5277860001660883, 1.9041009000502527, 1.9840723001398146, 2.4083047001622617]",,,10,001,G,2023_Jan_30_1448,student_TT_local,2021.1.4,60.067527911603314,
,None,None,None,None,None,None,None,None,None,None,ordain,potent,6.5,7.5,video&audio/jackal_TT_3X.mp4,video&audio/sentence2_TT_3X.mp4,jackal,septic,None,,,,,,,,,,,,,,,,,,,,,,,,,,,,,,,,,,,,,,,,,,,,,,,,,,,,,,,,,,,0,7,7,13,,,,,,,,,,,,,,,None,,,,,,,,,,,,,,,,,,,,,,,,,,None, septic,"['s', 'e', 'p', 't', 'i', 'c', 'return']","[0.5210433001630008, 0.751953599974513, 0.8958389000035822, 1.0079268000554293, 1.1444135999772698, 1.2477230001240969, 1.423814000096172]",,,10,001,G,2023_Jan_30_1448,student_TT_local,2021.1.4,60.067527911603314,
,None,None,None,None,None,None,None,None,None,None,divert,upkeep,19.5,20.5,video&audio/solemn_touch_edited.mp4,video&audio/Sentence2_touch_edited.mp4,solemn,meddle,None,,,,,,,,,,,,,,,,,,,,,,,,,,,,,,,,,,,,,,,,,,,,,,,,,,,,,,,,,,,0,8,8,25,,,,,,,,,,,,,,,None,,,,,,,,,,,,,,,,,,,,,,,,,,None, meddle,"['m', 'e', 'd', 'd', 'l', 'e', 'return']","[0.6803911000024527, 0.8323499001562595, 1.0566955001559108, 1.2089587000664324, 1.3364109999965876, 1.4409897001460195, 1.720703000202775]",,,10,001,G,2023_Jan_30_1448,student_TT_local,2021.1.4,60.067527911603314,
,None,None,None,None,None,None,None,None,None,None,entail,novice,6.5,7.5,video&audio/confer_TT_3X.mp4,video&audio/sentence5_TT_3X.mp4,confer,primal,None,,,,,,,,,,,,,,,,,,,,,,,,,,,,,,,,,,,,,,,,,,,,,,,,,,,,,,,,,,,0,9,9,4,,,,,,,,,,,,,,,None,,,,,,,,,,,,,,,,,,,,,,,,,,None, primal,"['p', 'r', 'i', 'm', 'a', 'l', 'return']","[0.6703677999321371, 0.8054662998765707, 0.9339354999829084, 1.110092599876225, 1.205595799954608, 1.2939059000927955, 1.5741973998956382]",,,10,001,G,2023_Jan_30_1448,student_TT_local,2021.1.4,60.067527911603314,
,None,None,None,None,None,None,None,None,None,None,galley,strife,6.5,7.5,video&audio/debtor_TT_3X.mp4,video&audio/sentence2_TT_3X.mp4,debtor,delude,None,,,,,,,,,,,,,,,,,,,,,,,,,,,,,,,,,,,,,,,,,,,,,,,,,,,,,,,,,,,0,10,10,7,,,,,,,,,,,,,,,None,,,,,,,,,,,,,,,,,,,,,,,,,,None, delude,"['d', 'e', 'l', 'u', 'd', 'e', 'return']","[0.501786099979654, 0.5977751000318676, 1.0060157999396324, 1.2054216000251472, 1.3335058998782188, 1.4053591000847518, 1.5729749999009073]",,,10,001,G,2023_Jan_30_1448,student_TT_local,2021.1.4,60.067527911603314,
,None,None,None,None,None,None,None,None,None,None,shroud,sherry,6.5,7.5,video&audio/falter_TT_3X.mp4,video&audio/sentence4_TT_3X.mp4,falter,hamlet,None,,,,,,,,,,,,,,,,,,,,,,,,,,,,,,,,,,,,,,,,,,,,,,,,,,,,,,,,,,,0,11,11,9,,,,,,,,,,,,,,,None,,,,,,,,,,,,,,,,,,,,,,,,,,None, hamlet,"['h', 'a', 'm', 'l', 'e', 't', 'return']","[0.32497900002636015, 0.5413976998534054, 0.6375769998412579, 0.7892607999965549, 0.9009441998787224, 1.077080799965188, 1.1894328999333084]",,,10,001,G,2023_Jan_30_1448,student_TT_local,2021.1.4,60.067527911603314,
,None,None,None,None,None,None,None,None,None,None,warble,fodder,19.5,20.5,video&audio/ritual_touch_edited.mp4,video&audio/Sentence1_touch_edited.mp4,ritual,mangle,None,,,,,,,,,,,,,,,,,,,,,,,,,,,,,,,,,,,,,,,,,,,,,,,,,,,,,,,,,,,0,12,12,24,,,,,,,,,,,,,,,None,,,,,,,,,,,,,,,,,,,,,,,,,,None, mangle,"['m', 'a', 'n', 'g', 'l', 'e', 'return']","[0.8997116999235004, 1.0285430999938399, 1.108041699975729, 1.396324799861759, 1.5078491000458598, 1.5877551999874413, 1.7637431998737156]",,,10,001,G,2023_Jan_30_1448,student_TT_local,2021.1.4,60.067527911603314,
,"This is Section 2.

In this section, your task will be the same as before - that is, to type the word you see on the screen after the typing prompt. However, rather than just seeing the word before typing, you will also see a video of someone typing the same word you will need to type at various speeds. 

Press 'enter/return' to go to the next page.","This is Section 4. 

In this section, your task will be the same as before - that is, to type the word you see on the screen after the typing prompt. You will see a video again, like in Section 2, only this time, the video will show someone typing different words to what you must type at various speeds. 

Press 'enter/return' to go to the next page.",video&audio/Example_AOMI_layout.png,1.6,0.6,afford,19.5,20.5,video&audio/afford_touch_edited.mp4,video&audio/amount_touch_edited.mp4,breach,vanity,6.5,7.5,video&audio/ascend_TT_3X.mp4,video&audio/sentence1_TT_3X.mp4,ascend,hinder,1 = AOMIspec,,,,,,,,,,,,,,,,,,,,,,,,,,,,,,,,,,,,,,,,,,,,,,,,,,,,,,,,,,,0,13,13,0,,,,,,,,,,,,,,,None,,,,,,,,,,,,,,,,,,,,,,,,,,None, hinder,"['h', 'i', 'n', 'd', 'e', 'r', 'return']","[0.5220315000042319, 0.594073599902913, 0.7864097999408841, 0.9856481999158859, 1.3385481000877917, 1.4015087999869138, 1.5780223000328988]",,,10,001,G,2023_Jan_30_1448,student_TT_local,2021.1.4,60.067527911603314,
,None,None,None,None,None,None,None,None,None,None,mucous,musket,19.5,20.5,video&audio/plasma_touch_edited.mp4,video&audio/Sentence5_touch_edited.mp4,plasma,fungal,None,,,,,,,,,,,,,,,,,,,,,,,,,,,,,,,,,,,,,,,,,,,,,,,,,,,,,,,,,,,0,14,14,22,,,,,,,,,,,,,,,None,,,,,,,,,,,,,,,,,,,,,,,,,,None, fungal,"['f', 'u', 'n', 'g', 'a', 'l', 'return']","[0.6416649001184851, 0.7528000001329929, 0.9131786001380533, 1.0806050000246614, 1.2083750001620501, 1.3206219000276178, 1.5529712999705225]",,,10,001,G,2023_Jan_30_1448,student_TT_local,2021.1.4,60.067527911603314,
,None,None,None,None,None,None,None,None,None,None,ethnic,goblet,19.5,20.5,video&audio/subtle_touch_edited.mp4,video&audio/Sentence4_touch_edited.mp4,subtle,trench,None,,,,,,,,,,,,,,,,,,,,,,,,,,,,,,,,,,,,,,,,,,,,,,,,,,,,,,,,,,,0,15,15,27,,,,,,,,,,,,,,,None,,,,,,,,,,,,,,,,,,,,,,,,,,None, trench,"['t', 'r', 'e', 'n', 'c', 'h', 'return']","[0.5383584001101553, 0.7710055999923497, 1.0022591000888497, 1.2261618999764323, 1.370514899957925, 1.466826100135222, 1.7548551999498159]",,,10,001,G,2023_Jan_30_1448,student_TT_local,2021.1.4,60.067527911603314,
,None,None,None,None,None,None,None,None,None,None,portal,murmur,19.5,20.5,video&audio/neural_touch_edited.mp4,video&audio/Sentence6_touch_edited.mp4,neural,clergy,None,,,,,,,,,,,,,,,,,,,,,,,,,,,,,,,,,,,,,,,,,,,,,,,,,,,,,,,,,,,0,16,16,17,,,,,,,,,,,,,,,None,,,,,,,,,,,,,,,,,,,,,,,,,,None, clergy,"['c', 'l', 'e', 'r', 'g', 'y', 'return']","[0.8595064000692219, 1.0036075999960303, 1.2036086001899093, 1.2918086000718176, 1.4678058000281453, 1.5317766000516713, 1.8756512000691146]",,,10,001,G,2023_Jan_30_1448,student_TT_local,2021.1.4,60.067527911603314,
,None,None,None,None,None,None,None,None,None,None,ration,parole,6.5,7.5,video&audio/devise_TT_3X.mp4,video&audio/sentence3_TT_3X.mp4,devise,befall,None,,,,,,,,,,,,,,,,,,,,,,,,,,,,,,,,,,,,,,,,,,,,,,,,,,,,,,,,,,,0,17,17,8,,,,,,,,,,,,,,,None,,,,,,,,,,,,,,,,,,,,,,,,,,None, befall,"['b', 'e', 'f', 'a', 'l', 'l', 'return']","[0.6300818999297917, 0.7823505999986082, 1.00619630003348, 1.1589202999603003, 1.3024710998870432, 1.430149900028482, 1.6064146000426263]",,,10,001,G,2023_Jan_30_1448,student_TT_local,2021.1.4,60.067527911603314,
,None,None,None,None,None,None,None,None,None,None,gullet,manure,19.5,20.5,video&audio/tariff_touch_edited.mp4,video&audio/Sentence5_touch_edited.mp4,tariff,parish,None,,,,,,,,,,,,,,,,,,,,,,,,,,,,,,,,,,,,,,,,,,,,,,,,,,,,,,,,,,,0,18,18,28,,,,,,,,,,,,,,,None,,,,,,,,,,,,,,,,,,,,,,,,,,None, parish,"['p', 'a', 'r', 'i', 's', 'h', 'return']","[0.6123418000061065, 0.7392434999346733, 0.9310536999255419, 1.0830610000994056, 1.1471573999151587, 1.2591864001005888, 1.5390514000318944]",,,10,001,G,2023_Jan_30_1448,student_TT_local,2021.1.4,60.067527911603314,
,None,None,None,None,None,None,None,None,None,None,apathy,revolt,6.5,7.5,video&audio/cortex_TT_3X.mp4,video&audio/sentence6_TT_3X.mp4,cortex,joiner,None,,,,,,,,,,,,,,,,,,,,,,,,,,,,,,,,,,,,,,,,,,,,,,,,,,,,,,,,,,,0,19,19,5,,,,,,,,,,,,,,,None,,,,,,,,,,,,,,,,,,,,,,,,,,None, joiner,"['j', 'o', 'i', 'n', 'e', 'r', 'return']","[0.8378218999132514, 1.0303906998597085, 1.2381357999984175, 1.4147957998793572, 1.5179737000726163, 1.6140375998802483, 1.958957799943164]",,,10,001,G,2023_Jan_30_1448,student_TT_local,2021.1.4,60.067527911603314,
,None,None,None,None,None,None,None,None,None,None,revoke,mirage,6.5,7.5,video&audio/covert_TT_3X.mp4,video&audio/sentence1_TT_3X.mp4,covert,shrewd,None,,,,,,,,,,,,,,,,,,,,,,,,,,,,,,,,,,,,,,,,,,,,,,,,,,,,,,,,,,,0,20,20,6,,,,,,,,,,,,,,,None,,,,,,,,,,,,,,,,,,,,,,,,,,None, shrewd,"['s', 'h', 'r', 'e', 'w', 'd', 'return']","[0.5675019000191242, 0.6956579999532551, 0.9190744999796152, 1.2069304999895394, 1.3831529999151826, 1.5192757998593152, 1.67883969983086]",,,10,001,G,2023_Jan_30_1448,student_TT_local,2021.1.4,60.067527911603314,
,None,None,None,None,None,None,None,None,None,None,tamper,sonnet,6.5,7.5,video&audio/hippie_TT_3X.mp4,video&audio/sentence1_TT_3X.mp4,hippie,innate,None,,,,,,,,,,,,,,,,,,,,,,,,,,,,,,,,,,,,,,,,,,,,,,,,,,,,,,,,,,,0,21,21,12,,,,,,,,,,,,,,,None,,,,,,,,,,,,,,,,,,,,,,,,,,None, innate,"['i', 'n', 'n', 'a', 't', 'e', 'return']","[0.4921083999797702, 0.7159502999857068, 0.8271521998103708, 0.9551701999735087, 1.1232803999446332, 1.2276721999514848, 1.419343899935484]",,,10,001,G,2023_Jan_30_1448,student_TT_local,2021.1.4,60.067527911603314,
,None,None,None,None,None,None,None,None,None,None,matron,legion,19.5,20.5,video&audio/subdue_touch_edited.mp4,video&audio/Sentence3_touch_edited.mp4,subdue,feudal,None,,,,,,,,,,,,,,,,,,,,,,,,,,,,,,,,,,,,,,,,,,,,,,,,,,,,,,,,,,,0,22,22,26,,,,,,,,,,,,,,,None,,,,,,,,,,,,,,,,,,,,,,,,,,None, feudal,"['f', 'e', 'u', 'd', 'a', 'l', 'return']","[0.39979870012030005, 0.46404770016670227, 0.7199142000172287, 0.8799902000464499, 0.9850799001287669, 1.0486094001680613, 1.3281223000958562]",,,10,001,G,2023_Jan_30_1448,student_TT_local,2021.1.4,60.067527911603314,
,None,None,None,None,None,None,None,None,None,None,mystic,infirm,6.5,7.5,video&audio/cervix_TT_3X.mp4,video&audio/sentence4_TT_3X.mp4,cervix,oblige,None,,,,,,,,,,,,,,,,,,,,,,,,,,,,,,,,,,,,,,,,,,,,,,,,,,,,,,,,,,,0,23,23,3,,,,,,,,,,,,,,,None,,,,,,,,,,,,,,,,,,,,,,,,,,None, oblige,"['o', 'b', 'l', 'u', 'backspace', 'i', 'g', 'e', 'return']","[0.48059760010801256, 0.6803326001390815, 0.8159859001170844, 1.1764515000395477, 1.7198073000181466, 1.967925800010562, 2.0639814001042396, 2.152637700084597, 2.2406425999943167]",,,10,001,G,2023_Jan_30_1448,student_TT_local,2021.1.4,60.067527911603314,
,None,None,None,None,None,None,None,None,None,None,fusion,critic,6.5,7.5,video&audio/forage_TT_3X.mp4,video&audio/sentence5_TT_3X.mp4,forage,zephyr,None,,,,,,,,,,,,,,,,,,,,,,,,,,,,,,,,,,,,,,,,,,,,,,,,,,,,,,,,,,,0,24,24,10,,,,,,,,,,,,,,,None,,,,,,,,,,,,,,,,,,,,,,,,,,None, zephyr,"['z', 'e', 'p', 'h', 'y', 'r', 'return']","[0.7251194999553263, 0.956430799793452, 1.0845323998946697, 1.324462299933657, 2.1325366999953985, 2.212341699982062, 2.460692699998617]",,,10,001,G,2023_Jan_30_1448,student_TT_local,2021.1.4,60.067527911603314,
,None,None,None,None,None,None,None,None,None,None,export,savant,19.5,20.5,video&audio/parcel_touch_edited.mp4,video&audio/Sentence2_touch_edited.mp4,parcel,cobble,None,,,,,,,,,,,,,,,,,,,,,,,,,,,,,,,,,,,,,,,,,,,,,,,,,,,,,,,,,,,0,25,25,19,,,,,,,,,,,,,,,None,,,,,,,,,,,,,,,,,,,,,,,,,,None, cobble,"['c', 'o', 'b', 'b', 'l', 'e', 'return']","[1.00769539992325, 1.1991808998864144, 1.3198547000065446, 1.5041405998636037, 1.5991493999026716, 1.6875551999546587, 1.9115825998596847]",,,10,001,G,2023_Jan_30_1448,student_TT_local,2021.1.4,60.067527911603314,
,"Remember to type as QUICKLY and ACCURATELY as possible after the 'get ready' prompt.

Ask the experimenter any questions now. Please put on the headphones.

You will get one practice trial. Press 'enter/return' when you are ready to start the practice.","Remember to type as QUICKLY and ACCURATELY as you can after the 'get ready' prompt.

Ask the experimenter any questions now. Please put on the headphones.

You will get one practice trial. Press 'enter/return' when you are ready to start the practice.",video&audio/Example_AOMI_total.png,1.8,0.7,None,None,None,None,None,ghetto,jargon,6.5,7.5,video&audio/botany_TT_3X.mp4,video&audio/sentence3_TT_3X.mp4,botany,oppose,None,,,,,,,,,,,,,,,,,,,,,,,,,,,,,,,,,,,,,,,,,,,,,,,,,,,,,,,,,,,0,26,26,2,,,,,,,,,,,,,,,None,,,,,,,,,,,,,,,,,,,,,,,,,,None, oppose,"['o', 'p', 'p', 'o', 's', 'e', 'return']","[0.8047166999895126, 0.9568580999039114, 1.0843559999484569, 1.2138801000546664, 1.3972385998349637, 1.548826899845153, 1.70055769989267]",,,10,001,G,2023_Jan_30_1448,student_TT_local,2021.1.4,60.067527911603314,
,None,None,None,None,None,None,None,None,None,None,nettle,convoy,19.5,20.5,video&audio/matrix_touch_edited.mp4,video&audio/Sentence5_touch_edited.mp4,matrix,jailer,None,,,,,,,,,,,,,,,,,,,,,,,,,,,,,,,,,,,,,,,,,,,,,,,,,,,,,,,,,,,0,27,27,16,,,,,,,,,,,,,,,None,,,,,,,,,,,,,,,,,,,,,,,,,,None, jailer,"['j', 'a', 'i', 'l', 'e', 'r', 'return']","[0.5228103999979794, 0.6827626000158489, 0.7861921000294387, 0.9460587000939995, 1.0524728999007493, 1.1462592000607401, 1.2743339999578893]",,,10,001,G,2023_Jan_30_1448,student_TT_local,2021.1.4,60.067527911603314,
,None,None,None,None,None,None,None,None,None,None,mussel,satire,19.5,20.5,video&audio/piston_touch_edited.mp4,video&audio/Sentence4_touch_edited.mp4,piston,induce,None,,,,,,,,,,,,,,,,,,,,,,,,,,,,,,,,,,,,,,,,,,,,,,,,,,,,,,,,,,,0,28,28,21,,,,,,,,,,,,,,,None,,,,,,,,,,,,,,,,,,,,,,,,,,None, induce,"['i', 'n', 'd', 'u', 'c', 'e', 'return']","[0.799921500030905, 0.9685792999807745, 1.2563247999642044, 1.3673441999126226, 1.5036492999643087, 1.5913798999972641, 1.7431626000907272]",,,10,001,G,2023_Jan_30_1448,student_TT_local,2021.1.4,60.067527911603314,
,"While you watch the video, imagine yourself typing the word on the screen, like how you did in the imagery practice. While you watch the video and imagine this, rest your hands on your keyboard but DO NOT type until AFTER you see the typing prompt.

Press 'enter/return' to go to the next page.","While watching the video, imagine yourself typing the word on the screen, like how you did in the imagery practice. While you watch the video and imagine this, rest your hands on your keyboard but DO NOT type until AFTER you see the typing prompt.

Press 'enter/return' to go to the next page.",video&audio/Example_AOMI_imagine.png,1.6,1,butter,6.5,7.5,video&audio/butter_TT_3X.mp4,video&audio/amount_TT_3X.mp4,eatery,plight,6.5,7.5,video&audio/belfry_TT_3X.mp4,video&audio/sentence2_TT_3X.mp4,belfry,metric,2 = AOMIgen,,,,,,,,,,,,,,,,,,,,,,,,,,,,,,,,,,,,,,,,,,,,,,,,,,,,,,,,,,,0,29,29,1,,,,,,,,,,,,,,,None,,,,,,,,,,,,,,,,,,,,,,,,,,None, metric,"['m', 'e', 't', 'r', 'i', 'c', 'return']","[0.5994604998268187, 0.7510976998601109, 0.9510145999956876, 1.1428640999365598, 1.3511731999460608, 1.4866164999548346, 1.702638200018555]",,,10,001,G,2023_Jan_30_1448,student_TT_local,2021.1.4,60.067527911603314,
,,,,,,,,,,,,,,,,,,,,typingRatingScale.png,"How would you rate your typing performance in the previous section?

Press a number on your keyboard according to the rating scale below to give your answer. Your first answer will be accepted.",,,,,,,,,,,,,,,,,,,,,,,,,,,,,,,,,,,,,,,,,,,,,,,,,,,,,,,,,,,,,0,0,0,0,,,,,,,,,,,,,,,,,,,,,,,,,,,,,,,,,,,,,,,,,['3'],[4.017366300104186],10,001,G,2023_Jan_30_1448,student_TT_local,2021.1.4,60.067527911603314,
,,,,,,,,,,,,,,,,,,,,visualImageryScale.png,"While imagining yourself typing, how clear was your visual image?

Press a number on your keyboard according to the rating scale below to give your answer. Your first answer will be accepted.",,,,,,,,,,,,,,,,,,,,,,,,,,,,,,,,,,,,,,,,,,,,,,,,,,,,,,,,,,,,,0,1,1,1,,,,,,,,,,,,,,,,,,,,,,,,,,,,,,,,,,,,,,,,,['1'],[3.4193365001119673],10,001,G,2023_Jan_30_1448,student_TT_local,2021.1.4,60.067527911603314,
,,,,,,,,,,,,,,,,,,,,kinestheticImageryScale.png,"While imagining yourself typing, how intense were the sensations associated with the imagined movement?

Press a number on your keyboard according to the rating scale below to give your answer. Your first answer will be accepted.",,,,,,,,,,,,,,,,,,,,,,,,,,,,,,,,,,,,,,,,,,,,,,,,,,,,,,,,,,,,,0,2,2,2,,,,,,,,,,,,,,,,,,,,,,,,,,,,,,,,,,,,,,,,,['2'],[3.1111902000848204],10,001,G,2023_Jan_30_1448,student_TT_local,2021.1.4,60.067527911603314,
