pracWords,instr_1,instr_2,AOMI_Ima,AOMI_w,AOMI_h,practiceWords,prac_time,prac_bkgd_time,pracVid_1,pracVid_2,baseline_words,control_words,cont_time,cont_bgkd_time,first_vids,second_vids,AOMIfirst_words,AOMIsecond_words,Order,ratingScale,rateInstr,instructLoop.thisRepN,instructLoop.thisTrialN,instructLoop.thisN,instructLoop.thisIndex,practice_control.thisRepN,practice_control.thisTrialN,practice_control.thisN,practice_control.thisIndex,trials_1.thisRepN,trials_1.thisTrialN,trials_1.thisN,trials_1.thisIndex,baseRateLoop.thisRepN,baseRateLoop.thisTrialN,baseRateLoop.thisN,baseRateLoop.thisIndex,AOMIinstrLoop1.thisRepN,AOMIinstrLoop1.thisTrialN,AOMIinstrLoop1.thisN,AOMIinstrLoop1.thisIndex,AOMIpracLoop.thisRepN,AOMIpracLoop.thisTrialN,AOMIpracLoop.thisN,AOMIpracLoop.thisIndex,trials_2.thisRepN,trials_2.thisTrialN,trials_2.thisN,trials_2.thisIndex,AOMI1rateLoop.thisRepN,AOMI1rateLoop.thisTrialN,AOMI1rateLoop.thisN,AOMI1rateLoop.thisIndex,contInstrLoop.thisRepN,contInstrLoop.thisTrialN,contInstrLoop.thisN,contInstrLoop.thisIndex,contPracLoop.thisRepN,contPracLoop.thisTrialN,contPracLoop.thisN,contPracLoop.thisIndex,trials_3.thisRepN,trials_3.thisTrialN,trials_3.thisN,trials_3.thisIndex,contRateLoop.thisRepN,contRateLoop.thisTrialN,contRateLoop.thisN,contRateLoop.thisIndex,AOMIinstrLoop2.thisRepN,AOMIinstrLoop2.thisTrialN,AOMIinstrLoop2.thisN,AOMIinstrLoop2.thisIndex,AOMIpracLoop2.thisRepN,AOMIpracLoop2.thisTrialN,AOMIpracLoop2.thisN,AOMIpracLoop2.thisIndex,trials_4.thisRepN,trials_4.thisTrialN,trials_4.thisN,trials_4.thisIndex,AOMI2rateLoop.thisRepN,AOMI2rateLoop.thisTrialN,AOMI2rateLoop.thisN,AOMI2rateLoop.thisIndex,pracBkgdKeys.keys,pracKeys.keys,pracKeys.rt,baseBkgdKeys.keys,base_typedWord,baseKeys.keys,baseKeys.rt,baseRateTypeKey.keys,baseRateTypeKey.rt,AOMI1_BkgdKeys.keys,AOMI_promptBkgdKeys.keys,AOMI1pracKeys.keys,AOMI1pracKeys.rt,AOMI1bkdgKeys.keys,AOMI1_typedWord,AOMI1keys.keys,AOMI1keys.rt,AOMI1bkdgKeys.rt,AOMI1rateTypeKey.keys,AOMI1rateTypeKey.rt,polygon_prac.started,polygon_prac.stopped,contBkgdKeys_prac.keys,contPrac_typedWord,contKeys_prac.keys,contKeys_prac.rt,polygon.started,polygon.stopped,contBkgdKeys.keys,cont_typedWord,contKeys.keys,contKeys.rt,contTypeKey.keys,contTypeKey.rt,bkgdkeys_prac2.keys,bkgdKeys4.keys,AOMI2_typedWord,keyboardCom4.keys,keyboardCom4.rt,AOMI2typeKey.keys,AOMI2typeKey.rt,participant,session,group,date,expName,psychopyVersion,frameRate,
height,,,,,,,,,,,,,,,,,,,,,,,,,,0,0,0,0,,,,,,,,,,,,,,,,,,,,,,,,,,,,,,,,,,,,,,,,,,,,,,,,,,,,,,,,,None,"['h', 'e', 'i', 'g', 'h', 't', 'return']","[0.7686313000012888, 0.8727519999956712, 1.065480799996294, 1.3526923999888822, 1.4250639999954728, 1.5295416000008117, 4.361176399994292]",,,,,,,,,,,,,,,,,,,,,,,,,,,,,,,,,,,,,,,11,001,A,2023_Feb_09_1114,student_TT_local,2021.1.4,59.95566877771931,
update,,,,,,,,,,,,,,,,,,,,,,,,,,0,1,1,2,,,,,,,,,,,,,,,,,,,,,,,,,,,,,,,,,,,,,,,,,,,,,,,,,,,,,,,,,None,"['u', 'p', 'd', 'a', 't', 'e', 'return']","[0.6571601000032388, 0.8581279999925755, 1.193455200002063, 1.2732045000011567, 1.417766999991727, 1.5292776999995112, 2.08118779999495]",,,,,,,,,,,,,,,,,,,,,,,,,,,,,,,,,,,,,,,11,001,A,2023_Feb_09_1114,student_TT_local,2021.1.4,59.95566877771931,
replay,,,,,,,,,,,,,,,,,,,,,,,,,,0,2,2,1,,,,,,,,,,,,,,,,,,,,,,,,,,,,,,,,,,,,,,,,,,,,,,,,,,,,,,,,,None,"['r', 'e', 'p', 'l', 'a', 'y', 'return']","[0.843379099998856, 1.0031009999947855, 1.3635236999980407, 1.5631862000009278, 1.6516125999914948, 2.5235691999987466, 2.6758515999972587]",,,,,,,,,,,,,,,,,,,,,,,,,,,,,,,,,,,,,,,11,001,A,2023_Feb_09_1114,student_TT_local,2021.1.4,59.95566877771931,
,None,None,None,None,None,None,None,None,None,None,falter,origin,6.5,7.5,video&audio/tandem_TT_3X.mp4,video&audio/sentence4_TT_3X.mp4,tandem,potent,None,,,,,,,,,,,0,0,0,15,,,,,,,,,,,,,,,,,,,,,,,,,,,,,,,,,,,,,,,,,,,,,,,,,,,,,,,,None, falter,"['f', 'a', 'l', 't', 'e', 'r', 'return']","[0.7337592999974731, 0.7907235000020592, 1.118370700001833, 1.3818406000063987, 1.4699171999964165, 1.6298816000053193, 1.925850800005719]",,,,,,,,,,,,,,,,,,,,,,,,,,,,,,,,,,,11,001,A,2023_Feb_09_1114,student_TT_local,2021.1.4,59.95566877771931,
,None,None,None,None,None,None,None,None,None,None,virile,apathy,19.5,20.5,video&audio/joiner_touch_edited.mp4,video&audio/Sentence6_touch_edited.mp4,joiner,revolt,None,,,,,,,,,,,0,1,1,5,,,,,,,,,,,,,,,,,,,,,,,,,,,,,,,,,,,,,,,,,,,,,,,,,,,,,,,,None, virile,"['v', 'i', 'r', 'i', 'l', 'e', 'return']","[0.5522940999944694, 0.6961174999887589, 0.9684465999889653, 1.0723196999897482, 1.2560274999996182, 1.3361015999980737, 1.6237806999997701]",,,,,,,,,,,,,,,,,,,,,,,,,,,,,,,,,,,11,001,A,2023_Feb_09_1114,student_TT_local,2021.1.4,59.95566877771931,
,None,None,None,None,None,None,None,None,None,None,cortex,mussel,6.5,7.5,video&audio/induce_TT_3X.mp4,video&audio/sentence4_TT_3X.mp4,induce,savant,None,,,,,,,,,,,0,2,2,21,,,,,,,,,,,,,,,,,,,,,,,,,,,,,,,,,,,,,,,,,,,,,,,,,,,,,,,,None, cortex,"['c', 'o', 'r', 't', 'e', 'x', 'return']","[0.4560131999896839, 0.7289620999945328, 1.025030799995875, 1.1443538999883458, 1.2962412999913795, 1.5122550999949453, 1.7360683000006247]",,,,,,,,,,,,,,,,,,,,,,,,,,,,,,,,,,,11,001,A,2023_Feb_09_1114,student_TT_local,2021.1.4,59.95566877771931,
,None,None,None,None,None,None,None,None,None,None,hippie,herbal,19.5,20.5,video&audio/hearth_touch_edited.mp4,video&audio/Sentence3_touch_edited.mp4,hearth,sonnet,None,,,,,,,,,,,0,3,3,14,,,,,,,,,,,,,,,,,,,,,,,,,,,,,,,,,,,,,,,,,,,,,,,,,,,,,,,,None, hippie,"['h', 'i', 'p', 'p', 'i', 'e', 'return']","[0.4261823999986518, 0.6020477999991272, 0.8184665000007953, 1.0981356999982381, 2.218313199991826, 2.2984118000022136, 2.5069788999971934]",,,,,,,,,,,,,,,,,,,,,,,,,,,,,,,,,,,11,001,A,2023_Feb_09_1114,student_TT_local,2021.1.4,59.95566877771931,
,None,None,None,None,None,None,None,None,None,None,devise,warble,6.5,7.5,video&audio/mangle_TT_3X.mp4,video&audio/sentence1_TT_3X.mp4,mangle,satire,None,,,,,,,,,,,0,4,4,24,,,,,,,,,,,,,,,,,,,,,,,,,,,,,,,,,,,,,,,,,,,,,,,,,,,,,,,,None, devise,"['d', 'e', 'v', 'i', 's', 'e', 'return']","[0.4384912999958033, 0.5987412999966182, 0.7828797999973176, 1.0140486000018427, 1.1262844000011683, 1.2941912999958731, 1.4545514000055846]",,,,,,,,,,,,,,,,,,,,,,,,,,,,,,,,,,,11,001,A,2023_Feb_09_1114,student_TT_local,2021.1.4,59.95566877771931,
,None,None,None,None,None,None,None,None,None,None,ritual,portal,6.5,7.5,video&audio/clergy_TT_3X.mp4,video&audio/sentence6_TT_3X.mp4,clergy,coerce,None,,,,,,,,,,,0,5,5,17,,,,,,,,,,,,,,,,,,,,,,,,,,,,,,,,,,,,,,,,,,,,,,,,,,,,,,,,None, ritual,"['r', 'i', 't', 'u', 'a', 'l', 'return']","[0.7128429999866057, 0.8315977999882307, 1.1036988999985624, 1.3116881999885663, 1.3916784999892116, 1.5440362999943318, 1.8077381999901263]",,,,,,,,,,,,,,,,,,,,,,,,,,,,,,,,,,,11,001,A,2023_Feb_09_1114,student_TT_local,2021.1.4,59.95566877771931,
,None,None,None,None,None,None,None,None,None,None,confer,tamper,19.5,20.5,video&audio/innate_touch_edited.mp4,video&audio/Sentence1_touch_edited.mp4,innate,critic,None,,,,,,,,,,,0,6,6,12,,,,,,,,,,,,,,,,,,,,,,,,,,,,,,,,,,,,,,,,,,,,,,,,,,,,,,,,None, confer,"['c', 'o', 'n', 'f', 'e', 'r', 'return']","[0.7459873000043444, 0.8250494000094477, 1.0572360000078334, 1.3212862000073073, 1.369644900012645, 1.5216218999994453, 1.7050368000054732]",,,,,,,,,,,,,,,,,,,,,,,,,,,,,,,,,,,11,001,A,2023_Feb_09_1114,student_TT_local,2021.1.4,59.95566877771931,
,None,None,None,None,None,None,None,None,None,None,covert,defame,19.5,20.5,video&audio/patent_touch_edited.mp4,video&audio/Sentence6_touch_edited.mp4,patent,binder,None,,,,,,,,,,,0,7,7,11,,,,,,,,,,,,,,,,,,,,,,,,,,,,,,,,,,,,,,,,,,,,,,,,,,,,,,,,None, covert,"['c', 'o', 'v', 'e', 'r', 't', 'return']","[0.4927449999959208, 0.5329449999990175, 0.7969174999889219, 0.8766165999986697, 1.0526779999927385, 1.1567776999872876, 1.5008422999962931]",,,,,,,,,,,,,,,,,,,,,,,,,,,,,,,,,,,11,001,A,2023_Feb_09_1114,student_TT_local,2021.1.4,59.95566877771931,
,None,None,None,None,None,None,None,None,None,None,kipper,divert,6.5,7.5,video&audio/meddle_TT_3X.mp4,video&audio/sentence2_TT_3X.mp4,meddle,musket,None,,,,,,,,,,,0,8,8,25,,,,,,,,,,,,,,,,,,,,,,,,,,,,,,,,,,,,,,,,,,,,,,,,,,,,,,,,None, kipper,"['k', 'i', 'p', 'p', 'e', 'r', 'return']","[0.4873215999978129, 0.6634940000076313, 0.8555534000042826, 0.9594044999976177, 1.0873769000027096, 1.2390988000115613, 1.3757113000028767]",,,,,,,,,,,,,,,,,,,,,,,,,,,,,,,,,,,11,001,A,2023_Feb_09_1114,student_TT_local,2021.1.4,59.95566877771931,
,None,None,None,None,None,None,None,None,None,None,belfry,linear,6.5,7.5,video&audio/girdle_TT_3X.mp4,video&audio/sentence6_TT_3X.mp4,girdle,manure,None,,,,,,,,,,,0,9,9,23,,,,,,,,,,,,,,,,,,,,,,,,,,,,,,,,,,,,,,,,,,,,,,,,,,,,,,,,None, be;fry,"['b', 'e', 'semicolon', 'f', 'r', 'y', 'return']","[0.4708877999946708, 0.5663706000050297, 0.7253669000056107, 0.8540772999986075, 1.061674500000663, 1.1977674000081606, 1.5255528999987291]",,,,,,,,,,,,,,,,,,,,,,,,,,,,,,,,,,,11,001,A,2023_Feb_09_1114,student_TT_local,2021.1.4,59.95566877771931,
,None,None,None,None,None,None,None,None,None,None,obsess,fusion,19.5,20.5,video&audio/zephyr_touch_edited.mp4,video&audio/Sentence5_touch_edited.mp4,zephyr,sherry,None,,,,,,,,,,,0,10,10,10,,,,,,,,,,,,,,,,,,,,,,,,,,,,,,,,,,,,,,,,,,,,,,,,,,,,,,,,None, obsess,"['o', 'b', 's', 's', 'backspace', 'e', 's', 's', 'return']","[0.6223743000009563, 0.8467423999973107, 1.0146392999886302, 1.1915756999951554, 1.7595158999902196, 1.9345593999896664, 2.1824893999873893, 2.3268453999917256, 2.5911870999989333]",,,,,,,,,,,,,,,,,,,,,,,,,,,,,,,,,,,11,001,A,2023_Feb_09_1114,student_TT_local,2021.1.4,59.95566877771931,
,None,None,None,None,None,None,None,None,None,None,subdue,matron,6.5,7.5,video&audio/feudal_TT_3X.mp4,video&audio/sentence3_TT_3X.mp4,feudal,impose,None,,,,,,,,,,,0,11,11,26,,,,,,,,,,,,,,,,,,,,,,,,,,,,,,,,,,,,,,,,,,,,,,,,,,,,,,,,None, subdue,"['s', 'u', 'b', 'd', 'u', 'e', 'return']","[0.717348200007109, 0.8612317000079202, 1.1095006999967154, 1.2936239999980899, 1.445508200005861, 1.5331581000064034, 1.805708300002152]",,,,,,,,,,,,,,,,,,,,,,,,,,,,,,,,,,,11,001,A,2023_Feb_09_1114,student_TT_local,2021.1.4,59.95566877771931,
,None,None,None,None,None,None,None,None,None,None,plasma,nettle,6.5,7.5,video&audio/jailer_TT_3X.mp4,video&audio/sentence5_TT_3X.mp4,jailer,deduct,None,,,,,,,,,,,0,12,12,16,,,,,,,,,,,,,,,,,,,,,,,,,,,,,,,,,,,,,,,,,,,,,,,,,,,,,,,,None, plasma,"['p', 'l', 'a', 's', 'm', 'a', 'return']","[0.4124257000075886, 0.5887198999989778, 0.6998235000064597, 0.876239400007762, 1.371721700008493, 1.4361343000055058, 1.6603735000098823]",,,,,,,,,,,,,,,,,,,,,,,,,,,,,,,,,,,11,001,A,2023_Feb_09_1114,student_TT_local,2021.1.4,59.95566877771931,
,None,None,None,None,None,None,None,None,None,None,tariff,galley,19.5,20.5,video&audio/delude_touch_edited.mp4,video&audio/Sentence2_touch_edited.mp4,delude,strife,None,,,,,,,,,,,0,13,13,7,,,,,,,,,,,,,,,,,,,,,,,,,,,,,,,,,,,,,,,,,,,,,,,,,,,,,,,,None, tariff,"['t', 'y', 'a', 'r', 'backspace', 'backspace', 'backspace', 'backspace', 't', 'a', 'r', 'i', 'f', 'f', 'return']","[0.6935729999968316, 0.7091015999903902, 0.7730847999919206, 0.9177535999915563, 2.037513899995247, 2.157441599993035, 2.2770827999920584, 2.3731588999944506, 3.093754799992894, 3.165495099994587, 3.245117200000095, 3.781246700003976, 3.9890845000045374, 4.109458999999333, 4.245979999992414]",,,,,,,,,,,,,,,,,,,,,,,,,,,,,,,,,,,11,001,A,2023_Feb_09_1114,student_TT_local,2021.1.4,59.95566877771931,
,"Remember to type as QUICKLY and ACCURATELY as possible after the 'get ready' prompt.

Ask the experimenter any questions now. Please put on the headphones.

You will get one practice trial. Press 'enter/return' when you are ready to start the practice.","Remember to type as QUICKLY and ACCURATELY as you can after the 'get ready' prompt.

Ask the experimenter any questions now. Please put on the headphones.

You will get one practice trial. Press 'enter/return' when you are ready to start the practice.",video&audio/Example_AOMI_total.png,1.8,0.7,None,None,None,None,None,frugal,ghetto,19.5,20.5,video&audio/oppose_touch_edited.mp4,video&audio/Sentence3_touch_edited.mp4,oppose,jargon,None,,,,,,,,,,,0,14,14,2,,,,,,,,,,,,,,,,,,,,,,,,,,,,,,,,,,,,,,,,,,,,,,,,,,,,,,,,None, frugal,"['f', 'r', 'u', 'g', 'a', 'l', 'return']","[0.6652772999950685, 0.8259496999962721, 0.9694576999900164, 1.2334788000007393, 1.3058497999882093, 1.529158399993321, 1.801398399999016]",,,,,,,,,,,,,,,,,,,,,,,,,,,,,,,,,,,11,001,A,2023_Feb_09_1114,student_TT_local,2021.1.4,59.95566877771931,
,None,None,None,None,None,None,None,None,None,None,jackal,shroud,19.5,20.5,video&audio/hamlet_touch_edited.mp4,video&audio/Sentence4_touch_edited.mp4,hamlet,parole,None,,,,,,,,,,,0,15,15,9,,,,,,,,,,,,,,,,,,,,,,,,,,,,,,,,,,,,,,,,,,,,,,,,,,,,,,,,None, jackal,"['j', 'a', 'c', 'k', 'a', 'l', 'return']","[0.4368274000007659, 0.4933498999889707, 0.7565810999949463, 0.9322395999915898, 1.0681299999996554, 1.1732319000002462, 1.4447437999915564]",,,,,,,,,,,,,,,,,,,,,,,,,,,,,,,,,,,11,001,A,2023_Feb_09_1114,student_TT_local,2021.1.4,59.95566877771931,
,"This is Section 2.

In this section, your task will be the same as before - that is, to type the word you see on the screen after the typing prompt. However, rather than just seeing the word before typing, you will also see a video of someone typing the same word you will need to type at various speeds. 

Press 'enter/return' to go to the next page.","This is Section 4. 

In this section, your task will be the same as before - that is, to type the word you see on the screen after the typing prompt. You will see a video again, like in Section 2, only this time, the video will show someone typing different words to what you must type at various speeds. 

Press 'enter/return' to go to the next page.",video&audio/Example_AOMI_layout.png,1.6,0.6,afford,19.5,20.5,video&audio/afford_touch_edited.mp4,video&audio/amount_touch_edited.mp4,matrix,breach,19.5,20.5,video&audio/hinder_touch_edited.mp4,video&audio/Sentence1_touch_edited.mp4,hinder,vanity,1 = AOMIspec,,,,,,,,,,,0,16,16,0,,,,,,,,,,,,,,,,,,,,,,,,,,,,,,,,,,,,,,,,,,,,,,,,,,,,,,,,None, matrix,"['m', 'a', 't', 'r', 'i', 'x', 'return']","[0.39212920000136364, 0.4473265000124229, 0.6961650000012014, 0.8714766000048257, 1.2633996000076877, 1.44738560001133, 1.7275655000121333]",,,,,,,,,,,,,,,,,,,,,,,,,,,,,,,,,,,11,001,A,2023_Feb_09_1114,student_TT_local,2021.1.4,59.95566877771931,
,None,None,None,None,None,None,None,None,None,None,picket,gullet,6.5,7.5,video&audio/parish_TT_3X.mp4,video&audio/sentence5_TT_3X.mp4,parish,upkeep,None,,,,,,,,,,,0,17,17,28,,,,,,,,,,,,,,,,,,,,,,,,,,,,,,,,,,,,,,,,,,,,,,,,,,,,,,,,None, picket,"['p', 'i', 'c', 'k', 'e', 't', 'return']","[0.35262979999242816, 0.5528813999990234, 0.7059114000003319, 0.7691730999940773, 0.9367409999977099, 1.0170714999985648, 1.3770283999911044]",,,,,,,,,,,,,,,,,,,,,,,,,,,,,,,,,,,11,001,A,2023_Feb_09_1114,student_TT_local,2021.1.4,59.95566877771931,
,None,None,None,None,None,None,None,None,None,None,malady,revoke,19.5,20.5,video&audio/shrewd_touch_edited.mp4,video&audio/Sentence1_touch_edited.mp4,shrewd,mirage,None,,,,,,,,,,,0,18,18,6,,,,,,,,,,,,,,,,,,,,,,,,,,,,,,,,,,,,,,,,,,,,,,,,,,,,,,,,None, malady,"['m', 'a', 'l', 'a', 'd', 'y', 'return']","[0.6067741000006208, 0.6870644000009634, 0.8063307999982499, 0.8704122999915853, 1.1667502999916906, 1.246817099992768, 1.606612799994764]",,,,,,,,,,,,,,,,,,,,,,,,,,,,,,,,,,,11,001,A,2023_Feb_09_1114,student_TT_local,2021.1.4,59.95566877771931,
,"While you watch the video, imagine yourself typing the word on the screen, like how you did in the imagery practice. While you watch the video and imagine this, rest your hands on your keyboard but DO NOT type until AFTER you see the typing prompt.

Press 'enter/return' to go to the next page.","While watching the video, imagine yourself typing the word on the screen, like how you did in the imagery practice. While you watch the video and imagine this, rest your hands on your keyboard but DO NOT type until AFTER you see the typing prompt.

Press 'enter/return' to go to the next page.",video&audio/Example_AOMI_imagine.png,1.6,1,butter,6.5,7.5,video&audio/butter_TT_3X.mp4,video&audio/amount_TT_3X.mp4,ascend,eatery,19.5,20.5,video&audio/metric_touch_edited.mp4,video&audio/Sentence2_touch_edited.mp4,metric,plight,2 = AOMIgen,,,,,,,,,,,0,19,19,1,,,,,,,,,,,,,,,,,,,,,,,,,,,,,,,,,,,,,,,,,,,,,,,,,,,,,,,,None, ascend,"['a', 's', 'c', 'e', 'n', 'd', 'return']","[0.319850600004429, 0.5038446999969892, 0.7119753000006313, 0.975997900008224, 1.2237282999994932, 1.3044804000091972, 1.5920429000107106]",,,,,,,,,,,,,,,,,,,,,,,,,,,,,,,,,,,11,001,A,2023_Feb_09_1114,student_TT_local,2021.1.4,59.95566877771931,
,None,None,None,None,None,None,None,None,None,None,solemn,ration,19.5,20.5,video&audio/befall_touch_edited.mp4,video&audio/Sentence3_touch_edited.mp4,befall,goblet,None,,,,,,,,,,,0,20,20,8,,,,,,,,,,,,,,,,,,,,,,,,,,,,,,,,,,,,,,,,,,,,,,,,,,,,,,,,None, solemn,"['s', 'o', 'l', 'e', 'm', 'n', 'return']","[0.36861260001023766, 0.5528364000056172, 0.7924116000067443, 0.9199784000084037, 1.0886202000110643, 1.2811276000138605, 1.5680066000059014]",,,,,,,,,,,,,,,,,,,,,,,,,,,,,,,,,,,11,001,A,2023_Feb_09_1114,student_TT_local,2021.1.4,59.95566877771931,
,None,None,None,None,None,None,None,None,None,None,pulpit,mystic,19.5,20.5,video&audio/oblige_touch_edited.mp4,video&audio/Sentence4_touch_edited.mp4,oblige,infirm,None,,,,,,,,,,,0,21,21,3,,,,,,,,,,,,,,,,,,,,,,,,,,,,,,,,,,,,,,,,,,,,,,,,,,,,,,,,None, pulpit,"['p', 'u', 'l', 'p', 'i', 't', 'return']","[0.3516743000072893, 0.5762514999951236, 0.8081174999970244, 1.024109399993904, 1.2087356999982148, 1.4157260000065435, 1.6083707000070717]",,,,,,,,,,,,,,,,,,,,,,,,,,,,,,,,,,,11,001,A,2023_Feb_09_1114,student_TT_local,2021.1.4,59.95566877771931,
,None,None,None,None,None,None,None,None,None,None,subtle,mucous,6.5,7.5,video&audio/fungal_TT_3X.mp4,video&audio/sentence5_TT_3X.mp4,fungal,brazen,None,,,,,,,,,,,0,22,22,22,,,,,,,,,,,,,,,,,,,,,,,,,,,,,,,,,,,,,,,,,,,,,,,,,,,,,,,,None, subtle,"['s', 'u', 'b', 't', 'l', 'e', 'return']","[0.3470806999976048, 0.4096120000031078, 0.5855030000093393, 0.753843099999358, 0.8813643000030424, 1.0581836000055773, 1.2658384000096703]",,,,,,,,,,,,,,,,,,,,,,,,,,,,,,,,,,,11,001,A,2023_Feb_09_1114,student_TT_local,2021.1.4,59.95566877771931,
,None,None,None,None,None,None,None,None,None,None,debtor,uphold,6.5,7.5,video&audio/output_TT_3X.mp4,video&audio/sentence1_TT_3X.mp4,output,convoy,None,,,,,,,,,,,0,23,23,18,,,,,,,,,,,,,,,,,,,,,,,,,,,,,,,,,,,,,,,,,,,,,,,,,,,,,,,,None, debtor,"['d', 'e', 'b', 't', 'o', 'r', 'return']","[0.2960000000020955, 0.43989149999106303, 0.6476925000024494, 0.8714017000020249, 1.0001552000030642, 1.2001594999892404, 1.3834301000024425]",,,,,,,,,,,,,,,,,,,,,,,,,,,,,,,,,,,11,001,A,2023_Feb_09_1114,student_TT_local,2021.1.4,59.95566877771931,
,None,None,None,None,None,None,None,None,None,None,cervix,export,6.5,7.5,video&audio/cobble_TT_3X.mp4,video&audio/sentence2_TT_3X.mp4,cobble,murmur,None,,,,,,,,,,,0,24,24,19,,,,,,,,,,,,,,,,,,,,,,,,,,,,,,,,,,,,,,,,,,,,,,,,,,,,,,,,None, cervix,"['c', 'e', 'r', 'v', 'x', 'return']","[0.42456810000294354, 0.5044380000035744, 0.6489185000100406, 0.7367811000003712, 1.2571103000082076, 1.672460100002354]",,,,,,,,,,,,,,,,,,,,,,,,,,,,,,,,,,,11,001,A,2023_Feb_09_1114,student_TT_local,2021.1.4,59.95566877771931,
,None,None,None,None,None,None,None,None,None,None,piston,shrill,6.5,7.5,video&audio/caviar_TT_3X.mp4,video&audio/sentence3_TT_3X.mp4,caviar,pursue,None,,,,,,,,,,,0,25,25,20,,,,,,,,,,,,,,,,,,,,,,,,,,,,,,,,,,,,,,,,,,,,,,,,,,,,,,,,None, piston,"['p', 'i', 's', 'r', 't', 'backspace', 'backspace', 't', 'o', 'b', 'backspace', 'n', 'return']","[0.5473951999883866, 0.7556967999989865, 0.8915654000011273, 1.043260199992801, 1.051273899996886, 1.8832823999982793, 2.403332699992461, 3.068408699997235, 3.140015199998743, 3.3799586999957683, 3.7481799999950454, 3.819575599991367, 3.9877930999937234]",,,,,,,,,,,,,,,,,,,,,,,,,,,,,,,,,,,11,001,A,2023_Feb_09_1114,student_TT_local,2021.1.4,59.95566877771931,
,None,None,None,None,None,None,None,None,None,None,forage,allure,6.5,7.5,video&audio/campus_TT_3X.mp4,video&audio/sentence6_TT_3X.mp4,campus,legion,None,,,,,,,,,,,0,26,26,29,,,,,,,,,,,,,,,,,,,,,,,,,,,,,,,,,,,,,,,,,,,,,,,,,,,,,,,,None, forgage,"['f', 'o', 'r', 'g', 's', 'a', 'backspace', 'backspace', 'a', 'g', 'e', 'return']","[0.588922700000694, 0.6860363000014331, 0.7729459999973187, 0.9729861999949208, 1.109103499999037, 1.1169592999940505, 1.7170082999946317, 1.9573779000056675, 2.341187300000456, 2.621614599993336, 2.6691427000041585, 2.981147200000123]",,,,,,,,,,,,,,,,,,,,,,,,,,,,,,,,,,,11,001,A,2023_Feb_09_1114,student_TT_local,2021.1.4,59.95566877771931,
,None,None,None,None,None,None,None,None,None,None,neural,ordain,19.5,20.5,video&audio/septic_touch_edited.mp4,video&audio/Sentence2_touch_edited.mp4,septic,quarry,None,,,,,,,,,,,0,27,27,13,,,,,,,,,,,,,,,,,,,,,,,,,,,,,,,,,,,,,,,,,,,,,,,,,,,,,,,,None, neural,"['n', 'e', 'u', 'r', 'a', 'l', 'return']","[0.3340450999967288, 0.4217758999875514, 0.5424660999997286, 0.6455606999952579, 0.8774835999938659, 0.9894765999924857, 1.2466119999880902]",,,,,,,,,,,,,,,,,,,,,,,,,,,,,,,,,,,11,001,A,2023_Feb_09_1114,student_TT_local,2021.1.4,59.95566877771931,
,None,None,None,None,None,None,None,None,None,None,parcel,entail,19.5,20.5,video&audio/primal_touch_edited.mp4,video&audio/Sentence5_touch_edited.mp4,primal,novice,None,,,,,,,,,,,0,28,28,4,,,,,,,,,,,,,,,,,,,,,,,,,,,,,,,,,,,,,,,,,,,,,,,,,,,,,,,,None, parcel,"['p', 'a', 'r', 'c', 'e', 'l', 'return']","[0.4498600999941118, 0.5297493999969447, 0.7218517000001157, 0.9373610999900848, 1.1535479999874951, 1.2968371999886585, 1.5609905999881448]",,,,,,,,,,,,,,,,,,,,,,,,,,,,,,,,,,,11,001,A,2023_Feb_09_1114,student_TT_local,2021.1.4,59.95566877771931,
,None,None,None,None,None,None,None,None,None,None,botany,ethnic,6.5,7.5,video&audio/trench_TT_3X.mp4,video&audio/sentence4_TT_3X.mp4,trench,fodder,None,,,,,,,,,,,0,29,29,27,,,,,,,,,,,,,,,,,,,,,,,,,,,,,,,,,,,,,,,,,,,,,,,,,,,,,,,,None, botany,"['b', 'o', 't', 'a', 'n', 'y', 'return']","[0.5918317000032403, 0.631889800002682, 0.8478844000055688, 0.9678424000012456, 1.0878872000030242, 1.287962600006722, 1.5118701000028523]",,,,,,,,,,,,,,,,,,,,,,,,,,,,,,,,,,,11,001,A,2023_Feb_09_1114,student_TT_local,2021.1.4,59.95566877771931,
,,,,,,,,,,,,,,,,,,,,typingRatingScale.png,"How would you rate your typing performance in the previous section?

Press a number on your keyboard according to the rating scale below to give your answer. Your first answer will be accepted.",,,,,,,,,,,,,0,0,0,0,,,,,,,,,,,,,,,,,,,,,,,,,,,,,,,,,,,,,,,,,,,,,,,,,,,,,,,,['4'],[21.592885899997782],,,,,,,,,,,,,,,,,,,,,,,,,,,,,,,,,11,001,A,2023_Feb_09_1114,student_TT_local,2021.1.4,59.95566877771931,
,,,,,,,,,,,,,,,,,,,,imageryCheckScale.png,"In the previous section did you imagine yourself typing?

Press a number on your keyboard according to the rating scale below to give your answer. Your first answer will be accepted.",,,,,,,,,,,,,0,1,1,1,,,,,,,,,,,,,,,,,,,,,,,,,,,,,,,,,,,,,,,,,,,,,,,,,,,,,,,,['3'],[8.06279270000232],,,,,,,,,,,,,,,,,,,,,,,,,,,,,,,,,11,001,A,2023_Feb_09_1114,student_TT_local,2021.1.4,59.95566877771931,
,None,None,None,None,None,None,None,None,None,None,subtle,mucous,6.5,7.5,video&audio/fungal_TT_3X.mp4,video&audio/sentence5_TT_3X.mp4,fungal,brazen,None,,,,,,,,,,,,,,,,,,,,,,,,,,,0,0,0,22,,,,,,,,,,,,,,,,,,,,,,,,,,,,,,,,,,,,,,,,,,,,,,None,None,"['b', 'u', 't', 't', 'e', 'r', 'return']","[0.7820690999942599, 0.9747587000019848, 1.1578018000000156, 1.3338729999959469, 1.4220764999918174, 1.5741745999985142, 1.726559399990947]",None, fungal,"['f', 'u', 'n', 'g', 'a', 'l', 'return']","[0.6591405000071973, 0.7395648999954574, 0.9394831999961752, 1.1149823000014294, 1.178934900002787, 1.4110581999993883, 1.6760622000001604]",,,,,,,,,,,,,,,,,,,,,,,,,11,001,A,2023_Feb_09_1114,student_TT_local,2021.1.4,59.95566877771931,
,"Remember to type as QUICKLY and ACCURATELY as possible after the 'get ready' prompt.

Ask the experimenter any questions now. Please put on the headphones.

You will get one practice trial. Press 'enter/return' when you are ready to start the practice.","Remember to type as QUICKLY and ACCURATELY as you can after the 'get ready' prompt.

Ask the experimenter any questions now. Please put on the headphones.

You will get one practice trial. Press 'enter/return' when you are ready to start the practice.",video&audio/Example_AOMI_total.png,1.8,0.7,None,None,None,None,None,frugal,ghetto,19.5,20.5,video&audio/oppose_touch_edited.mp4,video&audio/Sentence3_touch_edited.mp4,oppose,jargon,None,,,,,,,,,,,,,,,,,,,,,,,,,,,0,1,1,2,,,,,,,,,,,,,,,,,,,,,,,,,,,,,,,,,,,,,,,,,,,,,,,None,,,None, oppose,"['o', 'p', 'p', 'p', 'backspace', 's', 'e', 'backspace', 'backspace', 'o', 's', 'e', 'return']","[0.5700180999992881, 0.7943869000009727, 0.8824191000021528, 1.0105614999920363, 1.6433595999988029, 1.7542014999926323, 2.161873499993817, 2.370920000001206, 2.5301367999927606, 3.0742710000049556, 3.1618641999957617, 3.3060895999951754, 3.5704970999940997]",,,,,,,,,,,,,,,,,,,,,,,,,11,001,A,2023_Feb_09_1114,student_TT_local,2021.1.4,59.95566877771931,
,None,None,None,None,None,None,None,None,None,None,belfry,linear,6.5,7.5,video&audio/girdle_TT_3X.mp4,video&audio/sentence6_TT_3X.mp4,girdle,manure,None,,,,,,,,,,,,,,,,,,,,,,,,,,,0,2,2,23,,,,,,,,,,,,,,,,,,,,,,,,,,,,,,,,,,,,,,,,,,,,,,,None,,,None, girdle,"['g', 'i', 'r', 'd', 'l', 'e', 'return']","[0.542938900005538, 0.5980469000060111, 0.8465368000033777, 1.062404800002696, 1.1820447000063723, 1.3029759000055492, 1.6623117999988608]",,,,,,,,,,,,,,,,,,,,,,,,,11,001,A,2023_Feb_09_1114,student_TT_local,2021.1.4,59.95566877771931,
,None,None,None,None,None,None,None,None,None,None,piston,shrill,6.5,7.5,video&audio/caviar_TT_3X.mp4,video&audio/sentence3_TT_3X.mp4,caviar,pursue,None,,,,,,,,,,,,,,,,,,,,,,,,,,,0,3,3,20,,,,,,,,,,,,,,,,,,,,,,,,,,,,,,,,,,,,,,,,,,,,,,,None,,,None, caviar,"['c', 'a', 'v', 'i', 'a', 'r', 'return']","[0.5518311000050744, 0.6556037999980617, 0.7433372999948915, 1.2810109999991255, 1.4394423000048846, 1.5278956999973161, 1.8714137000060873]",,,,,,,,,,,,,,,,,,,,,,,,,11,001,A,2023_Feb_09_1114,student_TT_local,2021.1.4,59.95566877771931,
,None,None,None,None,None,None,None,None,None,None,debtor,uphold,6.5,7.5,video&audio/output_TT_3X.mp4,video&audio/sentence1_TT_3X.mp4,output,convoy,None,,,,,,,,,,,,,,,,,,,,,,,,,,,0,4,4,18,,,,,,,,,,,,,,,,,,,,,,,,,,,,,,,,,,,,,,,,,,,,,,,None,,,['return'], output,"['o', 'u', 'p', 'backspace', 't', 'p', 'u', 't', 'return']","[0.5981683999998495, 0.8141381000023102, 1.0141230000008363, 1.5820510999910766, 1.910155899997335, 2.2787404999980936, 2.5025479000032647, 2.606754499996896, 2.8384339999902295]",[0.006995999996433966],,,,,,,,,,,,,,,,,,,,,,,,11,001,A,2023_Feb_09_1114,student_TT_local,2021.1.4,59.95566877771931,
,None,None,None,None,None,None,None,None,None,None,obsess,fusion,19.5,20.5,video&audio/zephyr_touch_edited.mp4,video&audio/Sentence5_touch_edited.mp4,zephyr,sherry,None,,,,,,,,,,,,,,,,,,,,,,,,,,,0,5,5,10,,,,,,,,,,,,,,,,,,,,,,,,,,,,,,,,,,,,,,,,,,,,,,,None,,,None, zephyr,"['z', 'e', 'p', 'h', 'y', 'r', 'return']","[0.84988809999777, 1.1541995000006864, 1.2979062999947928, 1.5943506999901729, 1.8591064999927767, 2.03398149998975, 2.313838799993391]",,,,,,,,,,,,,,,,,,,,,,,,,11,001,A,2023_Feb_09_1114,student_TT_local,2021.1.4,59.95566877771931,
,None,None,None,None,None,None,None,None,None,None,plasma,nettle,6.5,7.5,video&audio/jailer_TT_3X.mp4,video&audio/sentence5_TT_3X.mp4,jailer,deduct,None,,,,,,,,,,,,,,,,,,,,,,,,,,,0,6,6,16,,,,,,,,,,,,,,,,,,,,,,,,,,,,,,,,,,,,,,,,,,,,,,,None,,,None, jailer,"['j', 'a', 'i', 'l', 'e', 'r', 'return']","[1.310240499995416, 1.3984486999979708, 1.5102371999964816, 1.6780838999984553, 1.7664102999988245, 1.926599600003101, 2.0458331999980146]",,,,,,,,,,,,,,,,,,,,,,,,,11,001,A,2023_Feb_09_1114,student_TT_local,2021.1.4,59.95566877771931,
,None,None,None,None,None,None,None,None,None,None,devise,warble,6.5,7.5,video&audio/mangle_TT_3X.mp4,video&audio/sentence1_TT_3X.mp4,mangle,satire,None,,,,,,,,,,,,,,,,,,,,,,,,,,,0,7,7,24,,,,,,,,,,,,,,,,,,,,,,,,,,,,,,,,,,,,,,,,,,,,,,,None,,,None, mangle,"['m', 'a', 'n', 'g', 'h', 'backspace', 'g', 'l', 'e', 'return']","[0.6504410000052303, 0.8102899999939837, 0.8986847000051057, 1.130144399998244, 1.1385431999951834, 1.6339787000033539, 2.2819164999964414, 2.3861258999968413, 2.586066000003484, 2.7382728999946266]",,,,,,,,,,,,,,,,,,,,,,,,,11,001,A,2023_Feb_09_1114,student_TT_local,2021.1.4,59.95566877771931,
,None,None,None,None,None,None,None,None,None,None,tariff,galley,19.5,20.5,video&audio/delude_touch_edited.mp4,video&audio/Sentence2_touch_edited.mp4,delude,strife,None,,,,,,,,,,,,,,,,,,,,,,,,,,,0,8,8,7,,,,,,,,,,,,,,,,,,,,,,,,,,,,,,,,,,,,,,,,,,,,,,,None,,,None, delude,"['d', 'e', 'l', 'u', 'd', 'e', 'return']","[0.4376658999972278, 0.5977792999910889, 0.7099223999975948, 0.9099589999968885, 0.957559599992237, 1.1100350999913644, 1.2780658999981824]",,,,,,,,,,,,,,,,,,,,,,,,,11,001,A,2023_Feb_09_1114,student_TT_local,2021.1.4,59.95566877771931,
,None,None,None,None,None,None,None,None,None,None,picket,gullet,6.5,7.5,video&audio/parish_TT_3X.mp4,video&audio/sentence5_TT_3X.mp4,parish,upkeep,None,,,,,,,,,,,,,,,,,,,,,,,,,,,0,9,9,28,,,,,,,,,,,,,,,,,,,,,,,,,,,,,,,,,,,,,,,,,,,,,,,None,,,None, parish,"['p', 'a', 'r', 'i', 's', 'h', 'bracketright', 'backspace', 'return']","[1.229336999997031, 1.3566583000065293, 1.7329466999944998, 1.9328402999963146, 2.0368611000012606, 2.156293899999582, 2.4524804999964545, 2.9963776999939, 3.1486034999979893]",,,,,,,,,,,,,,,,,,,,,,,,,11,001,A,2023_Feb_09_1114,student_TT_local,2021.1.4,59.95566877771931,
,None,None,None,None,None,None,None,None,None,None,malady,revoke,19.5,20.5,video&audio/shrewd_touch_edited.mp4,video&audio/Sentence1_touch_edited.mp4,shrewd,mirage,None,,,,,,,,,,,,,,,,,,,,,,,,,,,0,10,10,6,,,,,,,,,,,,,,,,,,,,,,,,,,,,,,,,,,,,,,,,,,,,,,,None,,,None, shrewd,"['h', 'a', 'r', 'e', 'w', 'd', 'backspace', 'backspace', 'backspace', 'backspace', 'backspace', 'backspace', 's', 'h', 'r', 'e', 'w', 'd', 'return']","[0.5806165999965742, 0.6121316000062507, 0.8361009000072954, 1.0045955000096, 1.340868400002364, 1.5009568999957992, 2.74097630000324, 3.5489510000043083, 3.676485899995896, 3.8043399000016507, 3.9248944999999367, 4.147987700009253, 4.820706500002416, 4.9006137999967905, 5.140306800007238, 5.316260699997656, 5.892835999999079, 6.267985500002396, 6.589124200007063]",,,,,,,,,,,,,,,,,,,,,,,,,11,001,A,2023_Feb_09_1114,student_TT_local,2021.1.4,59.95566877771931,
,None,None,None,None,None,None,None,None,None,None,cervix,export,6.5,7.5,video&audio/cobble_TT_3X.mp4,video&audio/sentence2_TT_3X.mp4,cobble,murmur,None,,,,,,,,,,,,,,,,,,,,,,,,,,,0,11,11,19,,,,,,,,,,,,,,,,,,,,,,,,,,,,,,,,,,,,,,,,,,,,,,,None,,,None, cobble,"['c', 'o', 'b', 'b', 'l', 'e', 'return']","[0.6108233999984805, 0.6595914000063203, 0.9225631000008434, 1.0912343000090914, 1.3391412000055425, 1.4518593000102555, 1.6349577000073623]",,,,,,,,,,,,,,,,,,,,,,,,,11,001,A,2023_Feb_09_1114,student_TT_local,2021.1.4,59.95566877771931,
,None,None,None,None,None,None,None,None,None,None,botany,ethnic,6.5,7.5,video&audio/trench_TT_3X.mp4,video&audio/sentence4_TT_3X.mp4,trench,fodder,None,,,,,,,,,,,,,,,,,,,,,,,,,,,0,12,12,27,,,,,,,,,,,,,,,,,,,,,,,,,,,,,,,,,,,,,,,,,,,,,,,None,,,None, trench,"['t', 'r', 'e', 'n', 'c', 'h', 'return']","[0.8529153999988921, 1.0121089000022039, 1.1476139000005787, 2.083884300009231, 2.1715999000007287, 2.2597775000031106, 2.5804826999956276]",,,,,,,,,,,,,,,,,,,,,,,,,11,001,A,2023_Feb_09_1114,student_TT_local,2021.1.4,59.95566877771931,
,None,None,None,None,None,None,None,None,None,None,confer,tamper,19.5,20.5,video&audio/innate_touch_edited.mp4,video&audio/Sentence1_touch_edited.mp4,innate,critic,None,,,,,,,,,,,,,,,,,,,,,,,,,,,0,13,13,12,,,,,,,,,,,,,,,,,,,,,,,,,,,,,,,,,,,,,,,,,,,,,,,None,,,None, innate,"['i', 'n', 'n', 'a', 't', 'e', 'return']","[0.6636389999912353, 0.9026550999988103, 1.0386531999974977, 1.1427619999885792, 1.238670999999158, 1.4230848999868613, 1.6629135999974096]",,,,,,,,,,,,,,,,,,,,,,,,,11,001,A,2023_Feb_09_1114,student_TT_local,2021.1.4,59.95566877771931,
,None,None,None,None,None,None,None,None,None,None,kipper,divert,6.5,7.5,video&audio/meddle_TT_3X.mp4,video&audio/sentence2_TT_3X.mp4,meddle,musket,None,,,,,,,,,,,,,,,,,,,,,,,,,,,0,14,14,25,,,,,,,,,,,,,,,,,,,,,,,,,,,,,,,,,,,,,,,,,,,,,,,None,,,None, medle,"['m', 'e', 'd', 'l', 'e', 'return']","[0.8426743000018178, 0.9383896999934223, 1.0988915000052657, 1.3067278999951668, 1.450578999996651, 1.7708136000001105]",,,,,,,,,,,,,,,,,,,,,,,,,11,001,A,2023_Feb_09_1114,student_TT_local,2021.1.4,59.95566877771931,
,None,None,None,None,None,None,None,None,None,None,cortex,mussel,6.5,7.5,video&audio/induce_TT_3X.mp4,video&audio/sentence4_TT_3X.mp4,induce,savant,None,,,,,,,,,,,,,,,,,,,,,,,,,,,0,15,15,21,,,,,,,,,,,,,,,,,,,,,,,,,,,,,,,,,,,,,,,,,,,,,,,None,,,"['backspace', 'backspace']", induce,"['i', 'n', 'd', 'u', 'space', 'c', 'backspace', 'backspace', 'c', 'e', 'return']","[0.6894314999954076, 0.8732115000020713, 1.2410264999925857, 1.329183900001226, 1.745277599999099, 2.5291521000035573, 2.881082299994887, 3.0335124999983236, 3.177270400003181, 3.4582219000003533, 4.1141785999934655]","[0.0028843000036431476, 0.16314630000852048]",,,,,,,,,,,,,,,,,,,,,,,,11,001,A,2023_Feb_09_1114,student_TT_local,2021.1.4,59.95566877771931,
,None,None,None,None,None,None,None,None,None,None,jackal,shroud,19.5,20.5,video&audio/hamlet_touch_edited.mp4,video&audio/Sentence4_touch_edited.mp4,hamlet,parole,None,,,,,,,,,,,,,,,,,,,,,,,,,,,0,16,16,9,,,,,,,,,,,,,,,,,,,,,,,,,,,,,,,,,,,,,,,,,,,,,,,None,,,None, hamlet,"['h', 'a', 'm', 'l', 'e', 't', 'return']","[0.6674051000009058, 0.7401323999947635, 0.8917877999920165, 1.075509599992074, 1.19506279999041, 1.3467194999975618, 1.6756956000026548]",,,,,,,,,,,,,,,,,,,,,,,,,11,001,A,2023_Feb_09_1114,student_TT_local,2021.1.4,59.95566877771931,
,None,None,None,None,None,None,None,None,None,None,virile,apathy,19.5,20.5,video&audio/joiner_touch_edited.mp4,video&audio/Sentence6_touch_edited.mp4,joiner,revolt,None,,,,,,,,,,,,,,,,,,,,,,,,,,,0,17,17,5,,,,,,,,,,,,,,,,,,,,,,,,,,,,,,,,,,,,,,,,,,,,,,,None,,,None, joiner,"['j', 'o', 'n', 'e', 'e', 'r', 'backspace', 'backspace', 'r', 'return']","[0.6190950000018347, 0.787557800009381, 1.5788803000032203, 1.675610999998753, 1.8754451999993762, 1.8833204999973532, 2.3394720000069356, 2.459430400005658, 2.626992000004975, 2.7789238000113983]",,,,,,,,,,,,,,,,,,,,,,,,,11,001,A,2023_Feb_09_1114,student_TT_local,2021.1.4,59.95566877771931,
,None,None,None,None,None,None,None,None,None,None,hippie,herbal,19.5,20.5,video&audio/hearth_touch_edited.mp4,video&audio/Sentence3_touch_edited.mp4,hearth,sonnet,None,,,,,,,,,,,,,,,,,,,,,,,,,,,0,18,18,14,,,,,,,,,,,,,,,,,,,,,,,,,,,,,,,,,,,,,,,,,,,,,,,None,,,['return'], hearth,"['h', 'e', 'a', 'r', 't', 'h', 'return']","[0.5308900999953039, 0.6426914000039687, 1.2109197999961907, 1.3065249000064796, 1.4985914999997476, 1.9546673000004375, 2.2754617000027793]",[0.07843209999555256],,,,,,,,,,,,,,,,,,,,,,,,11,001,A,2023_Feb_09_1114,student_TT_local,2021.1.4,59.95566877771931,
,None,None,None,None,None,None,None,None,None,None,solemn,ration,19.5,20.5,video&audio/befall_touch_edited.mp4,video&audio/Sentence3_touch_edited.mp4,befall,goblet,None,,,,,,,,,,,,,,,,,,,,,,,,,,,0,19,19,8,,,,,,,,,,,,,,,,,,,,,,,,,,,,,,,,,,,,,,,,,,,,,,,None,,,None, befall,"['b', 'e', 'f', 'a', 'l', 'l', 'return']","[0.8094980999885593, 0.8812829999951646, 1.0097566999902483, 1.1377286999922944, 1.4339168000005884, 1.5377103999926476, 1.8177747000008821]",,,,,,,,,,,,,,,,,,,,,,,,,11,001,A,2023_Feb_09_1114,student_TT_local,2021.1.4,59.95566877771931,
,None,None,None,None,None,None,None,None,None,None,parcel,entail,19.5,20.5,video&audio/primal_touch_edited.mp4,video&audio/Sentence5_touch_edited.mp4,primal,novice,None,,,,,,,,,,,,,,,,,,,,,,,,,,,0,20,20,4,,,,,,,,,,,,,,,,,,,,,,,,,,,,,,,,,,,,,,,,,,,,,,,None,,,None, primal,"['p', 'r', 'i', 'm', 'a', 'l', 'return']","[0.5522267000051215, 0.6726058000058401, 0.7997697999962838, 1.4963877999980468, 1.6561423000093782, 1.7447879000101238, 2.2324977000098443]",,,,,,,,,,,,,,,,,,,,,,,,,11,001,A,2023_Feb_09_1114,student_TT_local,2021.1.4,59.95566877771931,
,"While you watch the video, imagine yourself typing the word on the screen, like how you did in the imagery practice. While you watch the video and imagine this, rest your hands on your keyboard but DO NOT type until AFTER you see the typing prompt.

Press 'enter/return' to go to the next page.","While watching the video, imagine yourself typing the word on the screen, like how you did in the imagery practice. While you watch the video and imagine this, rest your hands on your keyboard but DO NOT type until AFTER you see the typing prompt.

Press 'enter/return' to go to the next page.",video&audio/Example_AOMI_imagine.png,1.6,1,butter,6.5,7.5,video&audio/butter_TT_3X.mp4,video&audio/amount_TT_3X.mp4,ascend,eatery,19.5,20.5,video&audio/metric_touch_edited.mp4,video&audio/Sentence2_touch_edited.mp4,metric,plight,2 = AOMIgen,,,,,,,,,,,,,,,,,,,,,,,,,,,0,21,21,1,,,,,,,,,,,,,,,,,,,,,,,,,,,,,,,,,,,,,,,,,,,,,,,None,,,None, metric,"['m', 'e', 't', 'i', 'backspace', 'r', 'i', 'c', 'return']","[0.4478265000070678, 0.496601599996211, 0.6883553999941796, 0.9129455000074813, 1.3129649000038626, 1.5602366999955848, 1.7201617999962764, 1.9518361999944318, 2.112688099994557]",,,,,,,,,,,,,,,,,,,,,,,,,11,001,A,2023_Feb_09_1114,student_TT_local,2021.1.4,59.95566877771931,
,None,None,None,None,None,None,None,None,None,None,pulpit,mystic,19.5,20.5,video&audio/oblige_touch_edited.mp4,video&audio/Sentence4_touch_edited.mp4,oblige,infirm,None,,,,,,,,,,,,,,,,,,,,,,,,,,,0,22,22,3,,,,,,,,,,,,,,,,,,,,,,,,,,,,,,,,,,,,,,,,,,,,,,,None,,,None, oblige,"['o', 'b', 'l', 'i', 'g', 'e', 'bracketright', 'backspace', 'return']","[0.6655946999962907, 0.7612969999900088, 0.865468799995142, 1.0575023999990663, 1.2900668999936897, 1.3613773999968544, 1.6416630000021541, 2.2493525999889243, 2.4257920999953058]",,,,,,,,,,,,,,,,,,,,,,,,,11,001,A,2023_Feb_09_1114,student_TT_local,2021.1.4,59.95566877771931,
,None,None,None,None,None,None,None,None,None,None,forage,allure,6.5,7.5,video&audio/campus_TT_3X.mp4,video&audio/sentence6_TT_3X.mp4,campus,legion,None,,,,,,,,,,,,,,,,,,,,,,,,,,,0,23,23,29,,,,,,,,,,,,,,,,,,,,,,,,,,,,,,,,,,,,,,,,,,,,,,,None,,,None, campus,"['c', 'a', 'm', 'p', 'u', 's', 'return']","[0.5086206999985734, 0.8136449000012362, 1.196279299998423, 1.6847525000048336, 1.9087876999983564, 1.9962730999977794, 2.2208920999983093]",,,,,,,,,,,,,,,,,,,,,,,,,11,001,A,2023_Feb_09_1114,student_TT_local,2021.1.4,59.95566877771931,
,None,None,None,None,None,None,None,None,None,None,neural,ordain,19.5,20.5,video&audio/septic_touch_edited.mp4,video&audio/Sentence2_touch_edited.mp4,septic,quarry,None,,,,,,,,,,,,,,,,,,,,,,,,,,,0,24,24,13,,,,,,,,,,,,,,,,,,,,,,,,,,,,,,,,,,,,,,,,,,,,,,,None,,,None, septic,"['s', 'e', 'p', 't', 'i', 'c', 'return']","[0.38490549998823553, 0.5856870999996318, 0.8735448999941582, 1.1779496999952244, 1.4100519999919925, 1.633744699996896, 1.826078400001279]",,,,,,,,,,,,,,,,,,,,,,,,,11,001,A,2023_Feb_09_1114,student_TT_local,2021.1.4,59.95566877771931,
,"This is Section 2.

In this section, your task will be the same as before - that is, to type the word you see on the screen after the typing prompt. However, rather than just seeing the word before typing, you will also see a video of someone typing the same word you will need to type at various speeds. 

Press 'enter/return' to go to the next page.","This is Section 4. 

In this section, your task will be the same as before - that is, to type the word you see on the screen after the typing prompt. You will see a video again, like in Section 2, only this time, the video will show someone typing different words to what you must type at various speeds. 

Press 'enter/return' to go to the next page.",video&audio/Example_AOMI_layout.png,1.6,0.6,afford,19.5,20.5,video&audio/afford_touch_edited.mp4,video&audio/amount_touch_edited.mp4,matrix,breach,19.5,20.5,video&audio/hinder_touch_edited.mp4,video&audio/Sentence1_touch_edited.mp4,hinder,vanity,1 = AOMIspec,,,,,,,,,,,,,,,,,,,,,,,,,,,0,25,25,0,,,,,,,,,,,,,,,,,,,,,,,,,,,,,,,,,,,,,,,,,,,,,,,None,,,None, hinder,"['h', 'i', 'n', 'd', 'e', 'r', 'return']","[0.5870438999991165, 0.7628965999901993, 0.9789291999913985, 1.091468899991014, 1.259808399991016, 1.4113698000001023, 1.5473674999957439]",,,,,,,,,,,,,,,,,,,,,,,,,11,001,A,2023_Feb_09_1114,student_TT_local,2021.1.4,59.95566877771931,
,None,None,None,None,None,None,None,None,None,None,falter,origin,6.5,7.5,video&audio/tandem_TT_3X.mp4,video&audio/sentence4_TT_3X.mp4,tandem,potent,None,,,,,,,,,,,,,,,,,,,,,,,,,,,0,26,26,15,,,,,,,,,,,,,,,,,,,,,,,,,,,,,,,,,,,,,,,,,,,,,,,None,,,None, tandem,"['t', 'a', 'n', 'd', 'e', 'm', 'return']","[0.44197430000349414, 0.505819199999678, 0.7377288999996381, 0.9378349999897182, 1.1138434000022244, 1.1777501000033226, 1.4496320999896852]",,,,,,,,,,,,,,,,,,,,,,,,,11,001,A,2023_Feb_09_1114,student_TT_local,2021.1.4,59.95566877771931,
,None,None,None,None,None,None,None,None,None,None,subdue,matron,6.5,7.5,video&audio/feudal_TT_3X.mp4,video&audio/sentence3_TT_3X.mp4,feudal,impose,None,,,,,,,,,,,,,,,,,,,,,,,,,,,0,27,27,26,,,,,,,,,,,,,,,,,,,,,,,,,,,,,,,,,,,,,,,,,,,,,,,None,,,None, feudal,"['f', 'e', 'u', 'd', 'a', 'l', 'bracketright', 'backspace', 'return']","[0.49336949999269564, 0.654151799986721, 0.7819544999947539, 1.0934368999878643, 1.3335244999907445, 1.4539919999951962, 1.7262668999901507, 2.2696689999866067, 2.4379540999943856]",,,,,,,,,,,,,,,,,,,,,,,,,11,001,A,2023_Feb_09_1114,student_TT_local,2021.1.4,59.95566877771931,
,None,None,None,None,None,None,None,None,None,None,covert,defame,19.5,20.5,video&audio/patent_touch_edited.mp4,video&audio/Sentence6_touch_edited.mp4,patent,binder,None,,,,,,,,,,,,,,,,,,,,,,,,,,,0,28,28,11,,,,,,,,,,,,,,,,,,,,,,,,,,,,,,,,,,,,,,,,,,,,,,,None,,,None, patent,"['p', 'a', 't', 'n', 'backspace', 'e', 'h', 'backspace', 'n', 't', 'return']","[0.38669109999318607, 0.4575477999896975, 0.6733295000012731, 0.9462978999945335, 1.3539408999931766, 1.481176899993443, 1.7051365999941481, 2.265632700000424, 2.5697073999908753, 2.658302099996945, 2.8737796999921557]",,,,,,,,,,,,,,,,,,,,,,,,,11,001,A,2023_Feb_09_1114,student_TT_local,2021.1.4,59.95566877771931,
,None,None,None,None,None,None,None,None,None,None,ritual,portal,6.5,7.5,video&audio/clergy_TT_3X.mp4,video&audio/sentence6_TT_3X.mp4,clergy,coerce,None,,,,,,,,,,,,,,,,,,,,,,,,,,,0,29,29,17,,,,,,,,,,,,,,,,,,,,,,,,,,,,,,,,,,,,,,,,,,,,,,,None,,,None, clergy,"['l', 'c', 'backspace', 'c', 'l', 'e', 'r', 'g', 'y', 'return']","[0.6821332000108669, 0.6988166000082856, 1.507187100010924, 1.794302800000878, 1.978660500011756, 2.1631631000054767, 2.362107400011155, 2.5233319000108168, 2.6829152000136673, 3.0906215000140946]",,,,,,,,,,,,,,,,,,,,,,,,,11,001,A,2023_Feb_09_1114,student_TT_local,2021.1.4,59.95566877771931,
,,,,,,,,,,,,,,,,,,,,typingRatingScale.png,"How would you rate your typing performance in the previous section?

Press a number on your keyboard according to the rating scale below to give your answer. Your first answer will be accepted.",,,,,,,,,,,,,,,,,,,,,,,,,,,,,0,0,0,0,,,,,,,,,,,,,,,,,,,,,,,,,,,,,,,,,,,,,,,,,,,,,,,,,,,['3'],[4.039556000003358],,,,,,,,,,,,,,,,,,,,,,11,001,A,2023_Feb_09_1114,student_TT_local,2021.1.4,59.95566877771931,
,,,,,,,,,,,,,,,,,,,,visualImageryScale.png,"While imagining yourself typing, how clear was your visual image?

Press a number on your keyboard according to the rating scale below to give your answer. Your first answer will be accepted.",,,,,,,,,,,,,,,,,,,,,,,,,,,,,0,1,1,1,,,,,,,,,,,,,,,,,,,,,,,,,,,,,,,,,,,,,,,,,,,,,,,,,,,['3'],[0.10193540000182111],,,,,,,,,,,,,,,,,,,,,,11,001,A,2023_Feb_09_1114,student_TT_local,2021.1.4,59.95566877771931,
,,,,,,,,,,,,,,,,,,,,kinestheticImageryScale.png,"While imagining yourself typing, how intense were the sensations associated with the imagined movement?

Press a number on your keyboard according to the rating scale below to give your answer. Your first answer will be accepted.",,,,,,,,,,,,,,,,,,,,,,,,,,,,,0,2,2,2,,,,,,,,,,,,,,,,,,,,,,,,,,,,,,,,,,,,,,,,,,,,,,,,,,,['3'],[3.4684407000022475],,,,,,,,,,,,,,,,,,,,,,11,001,A,2023_Feb_09_1114,student_TT_local,2021.1.4,59.95566877771931,
,None,None,None,None,None,None,None,None,None,None,belfry,linear,6.5,7.5,video&audio/girdle_TT_3X.mp4,video&audio/sentence6_TT_3X.mp4,girdle,manure,None,,,,,,,,,,,,,,,,,,,,,,,,,,,,,,,,,,,,,,,,,,,0,0,0,23,,,,,,,,,,,,,,,,,,,,,,,,,,,,,,,,,,,,,,,,,2991.174252900004,2997.6785286000086,None, butter,"['b', 'u', 't', 'e', 'backspace', 't', 'e', 'r', 'return']","[0.6084687999973539, 0.7760361999971792, 1.0157030999980634, 1.2237996999901952, 1.6318697999959113, 2.14386649998778, 2.2157721999974456, 2.3514785999868764, 2.504173900000751]",3025.3442278,3031.851047300006,None, linear,"['l', 'i', 'n', 'e', 'a', 'r', 'return']","[0.46464380000543315, 0.6319510000030277, 0.8082848000049125, 1.088112800003728, 1.27195790001133, 1.3681055000051856, 1.6962246000039158]",,,,,,,,,,11,001,A,2023_Feb_09_1114,student_TT_local,2021.1.4,59.95566877771931,
,None,None,None,None,None,None,None,None,None,None,debtor,uphold,6.5,7.5,video&audio/output_TT_3X.mp4,video&audio/sentence1_TT_3X.mp4,output,convoy,None,,,,,,,,,,,,,,,,,,,,,,,,,,,,,,,,,,,,,,,,,,,0,1,1,18,,,,,,,,,,,,,,,,,,,,,,,,,,,,,,,,,,,,,,,,,,,,,,,3034.5785399000015,3041.1003613000066,None, uphold,"['u', 'p', 'h', 'o', 'l', 'd', 'return']","[0.5975431999977445, 0.7894393000024138, 1.1257879999902798, 1.301626300002681, 1.4536621000006562, 1.549611399997957, 1.8464214999985415]",,,,,,,,,,11,001,A,2023_Feb_09_1114,student_TT_local,2021.1.4,59.95566877771931,
,None,None,None,None,None,None,None,None,None,None,falter,origin,6.5,7.5,video&audio/tandem_TT_3X.mp4,video&audio/sentence4_TT_3X.mp4,tandem,potent,None,,,,,,,,,,,,,,,,,,,,,,,,,,,,,,,,,,,,,,,,,,,0,2,2,15,,,,,,,,,,,,,,,,,,,,,,,,,,,,,,,,,,,,,,,,,,,,,,,3043.9791953000095,3050.488599700009,None, origin,"['o', 'r', 'i', 'i', 'n', 'return']","[0.7482789000059711, 0.9804580000054557, 1.0523213000124088, 1.5088541000004625, 1.6768162000080338, 2.0610478000016883]",,,,,,,,,,11,001,A,2023_Feb_09_1114,student_TT_local,2021.1.4,59.95566877771931,
,"This is Section 2.

In this section, your task will be the same as before - that is, to type the word you see on the screen after the typing prompt. However, rather than just seeing the word before typing, you will also see a video of someone typing the same word you will need to type at various speeds. 

Press 'enter/return' to go to the next page.","This is Section 4. 

In this section, your task will be the same as before - that is, to type the word you see on the screen after the typing prompt. You will see a video again, like in Section 2, only this time, the video will show someone typing different words to what you must type at various speeds. 

Press 'enter/return' to go to the next page.",video&audio/Example_AOMI_layout.png,1.6,0.6,afford,19.5,20.5,video&audio/afford_touch_edited.mp4,video&audio/amount_touch_edited.mp4,matrix,breach,19.5,20.5,video&audio/hinder_touch_edited.mp4,video&audio/Sentence1_touch_edited.mp4,hinder,vanity,1 = AOMIspec,,,,,,,,,,,,,,,,,,,,,,,,,,,,,,,,,,,,,,,,,,,0,3,3,0,,,,,,,,,,,,,,,,,,,,,,,,,,,,,,,,,,,,,,,,,,,,,,,3053.5985705000057,3073.118063700007,None, breach,"['b', 'r', 'e', 'a', 'c', 'h', 'return']","[0.3503729999938514, 0.5502044000022579, 0.7261660999938613, 0.8222262999915984, 1.1579953000036767, 1.2549462000024505, 1.6701171000022441]",,,,,,,,,,11,001,A,2023_Feb_09_1114,student_TT_local,2021.1.4,59.95566877771931,
,None,None,None,None,None,None,None,None,None,None,tariff,galley,19.5,20.5,video&audio/delude_touch_edited.mp4,video&audio/Sentence2_touch_edited.mp4,delude,strife,None,,,,,,,,,,,,,,,,,,,,,,,,,,,,,,,,,,,,,,,,,,,0,4,4,7,,,,,,,,,,,,,,,,,,,,,,,,,,,,,,,,,,,,,,,,,,,,,,,3075.84141980001,3095.3641358000023,None, galley,"['g', 'a', 'l', 'l', 'e', 'y', 'return']","[0.35289219999685884, 0.4248084999999264, 0.7366804000048432, 0.8569082000030903, 0.9923083000030601, 1.0964967000036268, 1.4890122999931918]",,,,,,,,,,11,001,A,2023_Feb_09_1114,student_TT_local,2021.1.4,59.95566877771931,
,None,None,None,None,None,None,None,None,None,None,obsess,fusion,19.5,20.5,video&audio/zephyr_touch_edited.mp4,video&audio/Sentence5_touch_edited.mp4,zephyr,sherry,None,,,,,,,,,,,,,,,,,,,,,,,,,,,,,,,,,,,,,,,,,,,0,5,5,10,,,,,,,,,,,,,,,,,,,,,,,,,,,,,,,,,,,,,,,,,,,,,,,3097.893091500009,3117.4067867999984,None, fusion,"['f', 'u', 's', 'i', 'o', 'n', 'return']","[0.4363432000100147, 0.5715807000087807, 0.7242406000004848, 0.9157634000002872, 1.3313016000029165, 1.603471599999466, 1.923767800006317]",,,,,,,,,,11,001,A,2023_Feb_09_1114,student_TT_local,2021.1.4,59.95566877771931,
,None,None,None,None,None,None,None,None,None,None,hippie,herbal,19.5,20.5,video&audio/hearth_touch_edited.mp4,video&audio/Sentence3_touch_edited.mp4,hearth,sonnet,None,,,,,,,,,,,,,,,,,,,,,,,,,,,,,,,,,,,,,,,,,,,0,6,6,14,,,,,,,,,,,,,,,,,,,,,,,,,,,,,,,,,,,,,,,,,,,,,,,3120.371176300003,3139.8841054000077,None, herbal,"['h', 'e', 'r', 'b', 'a', 'l', 'return']","[0.30473990000609774, 0.39374850000604056, 0.5452510000031907, 0.648818100002245, 0.7927039000060176, 0.9449725000013132, 1.3847198000003118]",,,,,,,,,,11,001,A,2023_Feb_09_1114,student_TT_local,2021.1.4,59.95566877771931,
,None,None,None,None,None,None,None,None,None,None,malady,revoke,19.5,20.5,video&audio/shrewd_touch_edited.mp4,video&audio/Sentence1_touch_edited.mp4,shrewd,mirage,None,,,,,,,,,,,,,,,,,,,,,,,,,,,,,,,,,,,,,,,,,,,0,7,7,6,,,,,,,,,,,,,,,,,,,,,,,,,,,,,,,,,,,,,,,,,,,,,,,3142.3247525000043,3161.8444646999997,None, revoke,"['r', 'e', 'v', 'o', 'k', 'e', 'return']","[0.41563200000382494, 0.5676264000067022, 0.7760147000080906, 0.8958332000038354, 1.0644229000026826, 1.104093300004024, 1.3521034000004875]",,,,,,,,,,11,001,A,2023_Feb_09_1114,student_TT_local,2021.1.4,59.95566877771931,
,None,None,None,None,None,None,None,None,None,None,forage,allure,6.5,7.5,video&audio/campus_TT_3X.mp4,video&audio/sentence6_TT_3X.mp4,campus,legion,None,,,,,,,,,,,,,,,,,,,,,,,,,,,,,,,,,,,,,,,,,,,0,8,8,29,,,,,,,,,,,,,,,,,,,,,,,,,,,,,,,,,,,,,,,,,,,,,,,3164.2135167000088,3170.7161043000087,None, allure,"['a', 'l', 'l', 'u', 'r', 'e', 'return']","[0.43136410000442993, 0.5908468999987235, 0.7021254999999655, 0.8943464000039967, 1.0225677999987965, 1.1661797999986447, 1.3107052999985171]",,,,,,,,,,11,001,A,2023_Feb_09_1114,student_TT_local,2021.1.4,59.95566877771931,
,None,None,None,None,None,None,None,None,None,None,subtle,mucous,6.5,7.5,video&audio/fungal_TT_3X.mp4,video&audio/sentence5_TT_3X.mp4,fungal,brazen,None,,,,,,,,,,,,,,,,,,,,,,,,,,,,,,,,,,,,,,,,,,,0,9,9,22,,,,,,,,,,,,,,,,,,,,,,,,,,,,,,,,,,,,,,,,,,,,,,,3173.0663918000064,3179.582391700009,None, mucous,"['m', 'u', 'c', 'u', 'backspace', 'o', 'u', 's', 'return']","[0.2331317000061972, 0.4087446000048658, 0.7133567999990191, 0.8563960000028601, 1.577044699995895, 2.168564300009166, 2.3615903000027174, 2.4327760000014678, 2.6803920000093058]",,,,,,,,,,11,001,A,2023_Feb_09_1114,student_TT_local,2021.1.4,59.95566877771931,
,None,None,None,None,None,None,None,None,None,None,devise,warble,6.5,7.5,video&audio/mangle_TT_3X.mp4,video&audio/sentence1_TT_3X.mp4,mangle,satire,None,,,,,,,,,,,,,,,,,,,,,,,,,,,,,,,,,,,,,,,,,,,0,10,10,24,,,,,,,,,,,,,,,,,,,,,,,,,,,,,,,,,,,,,,,,,,,,,,,3259.002410000001,3265.5154411999974,None, warble,"['w', 'a', 'r', 'b', 'l', 'e', 'return']","[0.27969569999550004, 0.4246024000021862, 0.679849699998158, 0.9607936999964295, 1.1759917000017595, 1.2716600999992806, 1.4959124000015436]",,,,,,,,,,11,001,A,2023_Feb_09_1114,student_TT_local,2021.1.4,59.95566877771931,
,None,None,None,None,None,None,None,None,None,None,kipper,divert,6.5,7.5,video&audio/meddle_TT_3X.mp4,video&audio/sentence2_TT_3X.mp4,meddle,musket,None,,,,,,,,,,,,,,,,,,,,,,,,,,,,,,,,,,,,,,,,,,,0,11,11,25,,,,,,,,,,,,,,,,,,,,,,,,,,,,,,,,,,,,,,,,,,,,,,,3268.061704599997,3274.5622124000074,None, divert,"['d', 'i', 'v', 'e', 'r', 't', 'bracketright', 'return']","[0.8258711999951629, 0.8893874000059441, 1.1213124000059906, 1.177311200008262, 1.32940430000599, 1.4092175999976462, 1.7615380000061123, 1.769543500005966]",,,,,,,,,,11,001,A,2023_Feb_09_1114,student_TT_local,2021.1.4,59.95566877771931,
,None,None,None,None,None,None,None,None,None,None,subdue,matron,6.5,7.5,video&audio/feudal_TT_3X.mp4,video&audio/sentence3_TT_3X.mp4,feudal,impose,None,,,,,,,,,,,,,,,,,,,,,,,,,,,,,,,,,,,,,,,,,,,0,12,12,26,,,,,,,,,,,,,,,,,,,,,,,,,,,,,,,,,,,,,,,,,,,,,,,3277.3751759000006,3283.877778599999,None, matron,"['m', 'a', 't', 'r', 'o', 'n', 'return']","[0.5657963999983622, 0.6130583999911323, 0.8927644999930635, 1.0694757000019308, 1.1648858999978984, 1.348989199992502, 1.6688132999988738]",,,,,,,,,,11,001,A,2023_Feb_09_1114,student_TT_local,2021.1.4,59.95566877771931,
,None,None,None,None,None,None,None,None,None,None,cortex,mussel,6.5,7.5,video&audio/induce_TT_3X.mp4,video&audio/sentence4_TT_3X.mp4,induce,savant,None,,,,,,,,,,,,,,,,,,,,,,,,,,,,,,,,,,,,,,,,,,,0,13,13,21,,,,,,,,,,,,,,,,,,,,,,,,,,,,,,,,,,,,,,,,,,,,,,,3286.584568300008,3293.107475500001,None, mussel,"['m', 'u', 's', 's', 'e', 'l', 'return']","[0.6425564999954076, 0.7868219999945723, 0.9235518000059528, 1.05851299999631, 1.1951075999968452, 1.2905403000040678, 1.6028531000047224]",,,,,,,,,,11,001,A,2023_Feb_09_1114,student_TT_local,2021.1.4,59.95566877771931,
,None,None,None,None,None,None,None,None,None,None,solemn,ration,19.5,20.5,video&audio/befall_touch_edited.mp4,video&audio/Sentence3_touch_edited.mp4,befall,goblet,None,,,,,,,,,,,,,,,,,,,,,,,,,,,,,,,,,,,,,,,,,,,0,14,14,8,,,,,,,,,,,,,,,,,,,,,,,,,,,,,,,,,,,,,,,,,,,,,,,3295.734464699999,3315.242913299997,None, ration,"['r', 'a', 't', 'i', 'o', 'n', 'return']","[0.40158320000045933, 0.4816782999987481, 0.5695662000071025, 1.3298454000032507, 1.4503294000023743, 1.6342905000055907, 1.9616768999985652]",,,,,,,,,,11,001,A,2023_Feb_09_1114,student_TT_local,2021.1.4,59.95566877771931,
,None,None,None,None,None,None,None,None,None,None,covert,defame,19.5,20.5,video&audio/patent_touch_edited.mp4,video&audio/Sentence6_touch_edited.mp4,patent,binder,None,,,,,,,,,,,,,,,,,,,,,,,,,,,,,,,,,,,,,,,,,,,0,15,15,11,,,,,,,,,,,,,,,,,,,,,,,,,,,,,,,,,,,,,,,,,,,,,,,3318.2463885000034,3337.755815700002,None, defame,"['d', 'e', 'f', 'a', 'm', 'e', 'return']","[0.6807860999979312, 1.016709899995476, 1.2410768999980064, 1.3290471999935107, 1.7848526999878231, 1.8730896999913966, 2.153800999993109]",,,,,,,,,,11,001,A,2023_Feb_09_1114,student_TT_local,2021.1.4,59.95566877771931,
,None,None,None,None,None,None,None,None,None,None,parcel,entail,19.5,20.5,video&audio/primal_touch_edited.mp4,video&audio/Sentence5_touch_edited.mp4,primal,novice,None,,,,,,,,,,,,,,,,,,,,,,,,,,,,,,,,,,,,,,,,,,,0,16,16,4,,,,,,,,,,,,,,,,,,,,,,,,,,,,,,,,,,,,,,,,,,,,,,,3340.955175199997,3360.460779000001,None, entail,"['e', 'n', 't', 'a', 'i', 'l', 'return']","[0.25918779999483377, 0.3551046999928076, 0.5629704999882961, 0.6589852999895811, 0.8119090999971377, 1.018954200000735, 1.3629784999939147]",,,,,,,,,,11,001,A,2023_Feb_09_1114,student_TT_local,2021.1.4,59.95566877771931,
,None,None,None,None,None,None,None,None,None,None,picket,gullet,6.5,7.5,video&audio/parish_TT_3X.mp4,video&audio/sentence5_TT_3X.mp4,parish,upkeep,None,,,,,,,,,,,,,,,,,,,,,,,,,,,,,,,,,,,,,,,,,,,0,17,17,28,,,,,,,,,,,,,,,,,,,,,,,,,,,,,,,,,,,,,,,,,,,,,,,3362.8632867999986,3369.3770468000002,None, gullet,"['g', 'u', 'k', 'l', 'backspace', 'backspace', 'l', 'l', 'e', 't', 'return']","[0.08277629999793135, 0.2667605000024196, 0.4669964000058826, 0.8830102000065381, 1.1713713000062853, 1.2907936999981757, 1.5308191000076476, 1.650699200006784, 1.7556620000104886, 1.8749097999971127, 2.162884200006374]",,,,,,,,,,11,001,A,2023_Feb_09_1114,student_TT_local,2021.1.4,59.95566877771931,
,None,None,None,None,None,None,None,None,None,None,ritual,portal,6.5,7.5,video&audio/clergy_TT_3X.mp4,video&audio/sentence6_TT_3X.mp4,clergy,coerce,None,,,,,,,,,,,,,,,,,,,,,,,,,,,,,,,,,,,,,,,,,,,0,18,18,17,,,,,,,,,,,,,,,,,,,,,,,,,,,,,,,,,,,,,,,,,,,,,,,3372.59518080001,3379.1057430000074,None, portal,"['p', 'o', 'r', 't', 'a', 'l', 'return']","[0.38248129999556113, 0.5346259999932954, 0.7993598999892129, 0.9584570000006352, 1.0548018999979831, 1.2783483999955934, 1.5666261000005761]",,,,,,,,,,11,001,A,2023_Feb_09_1114,student_TT_local,2021.1.4,59.95566877771931,
,None,None,None,None,None,None,None,None,None,None,neural,ordain,19.5,20.5,video&audio/septic_touch_edited.mp4,video&audio/Sentence2_touch_edited.mp4,septic,quarry,None,,,,,,,,,,,,,,,,,,,,,,,,,,,,,,,,,,,,,,,,,,,0,19,19,13,,,,,,,,,,,,,,,,,,,,,,,,,,,,,,,,,,,,,,,,,,,,,,,3381.7207624000002,3401.223322799997,None, ordian,"['o', 'r', 'd', 'i', 'a', 'n', 'return']","[0.6834109999908833, 1.107314499997301, 1.3227445999946212, 1.451175800000783, 1.5392972999979975, 1.650604199996451, 1.9636510999989696]",,,,,,,,,,11,001,A,2023_Feb_09_1114,student_TT_local,2021.1.4,59.95566877771931,
,None,None,None,None,None,None,None,None,None,None,jackal,shroud,19.5,20.5,video&audio/hamlet_touch_edited.mp4,video&audio/Sentence4_touch_edited.mp4,hamlet,parole,None,,,,,,,,,,,,,,,,,,,,,,,,,,,,,,,,,,,,,,,,,,,0,20,20,9,,,,,,,,,,,,,,,,,,,,,,,,,,,,,,,,,,,,,,,,,,,,,,,3469.8772647000005,3489.3961789000023,None, shroud,"['s', 'h', 'r', 'o', 'u', 'd', 'return']","[0.5817899999965448, 0.669464100006735, 0.8453684999985853, 0.9567990000068676, 1.1571977999992669, 1.2453225000062957, 1.4691386000049533]",,,,,,,,,,11,001,A,2023_Feb_09_1114,student_TT_local,2021.1.4,59.95566877771931,
,None,None,None,None,None,None,None,None,None,None,pulpit,mystic,19.5,20.5,video&audio/oblige_touch_edited.mp4,video&audio/Sentence4_touch_edited.mp4,oblige,infirm,None,,,,,,,,,,,,,,,,,,,,,,,,,,,,,,,,,,,,,,,,,,,0,21,21,3,,,,,,,,,,,,,,,,,,,,,,,,,,,,,,,,,,,,,,,,,,,,,,,3491.9100693000073,3511.428744100005,None, mystic,"['m', 'y', 's', 't', 'i', 'c', 'return']","[0.35547930000757333, 0.5551524000038626, 0.7632524000073317, 1.1881201000069268, 1.6433752000011737, 1.6999803000071552, 1.9803343000094173]",,,,,,,,,,11,001,A,2023_Feb_09_1114,student_TT_local,2021.1.4,59.95566877771931,
,None,None,None,None,None,None,None,None,None,None,confer,tamper,19.5,20.5,video&audio/innate_touch_edited.mp4,video&audio/Sentence1_touch_edited.mp4,innate,critic,None,,,,,,,,,,,,,,,,,,,,,,,,,,,,,,,,,,,,,,,,,,,0,22,22,12,,,,,,,,,,,,,,,,,,,,,,,,,,,,,,,,,,,,,,,,,,,,,,,3514.442012700005,3533.9612407000095,None, tamper,"['t', 'a', 'm', 'p', 'e', 'r', 'return']","[0.5546122000087053, 0.6354471999948146, 0.8030814000085229, 1.058713499995065, 1.162598099996103, 1.355013799999142, 1.4751458999962779]",,,,,,,,,,11,001,A,2023_Feb_09_1114,student_TT_local,2021.1.4,59.95566877771931,
,None,None,None,None,None,None,None,None,None,None,botany,ethnic,6.5,7.5,video&audio/trench_TT_3X.mp4,video&audio/sentence4_TT_3X.mp4,trench,fodder,None,,,,,,,,,,,,,,,,,,,,,,,,,,,,,,,,,,,,,,,,,,,0,23,23,27,,,,,,,,,,,,,,,,,,,,,,,,,,,,,,,,,,,,,,,,,,,,,,,3536.46653830001,3542.9798252000037,None, ethnic,"['e', 't', 'h', 'n', 'c', 'backspace', 'i', 'c', 'return']","[0.7233788000012282, 0.8270221999991918, 0.9716960999940056, 1.2270494999975199, 1.4437621999968542, 1.9950562000012724, 2.299062399994, 2.3314601000020048, 2.5791461000044364]",,,,,,,,,,11,001,A,2023_Feb_09_1114,student_TT_local,2021.1.4,59.95566877771931,
,None,None,None,None,None,None,None,None,None,None,cervix,export,6.5,7.5,video&audio/cobble_TT_3X.mp4,video&audio/sentence2_TT_3X.mp4,cobble,murmur,None,,,,,,,,,,,,,,,,,,,,,,,,,,,,,,,,,,,,,,,,,,,0,24,24,19,,,,,,,,,,,,,,,,,,,,,,,,,,,,,,,,,,,,,,,,,,,,,,,3546.620266800004,3553.1429339000024,None, export,"['e', 'x', 'p', 'o', 'r', 't', 'return']","[0.6214479000045685, 0.8206388999969931, 1.0930607000045711, 1.253627600002801, 1.4370014000014635, 1.5324790000013309, 1.861176999998861]",,,,,,,,,,11,001,A,2023_Feb_09_1114,student_TT_local,2021.1.4,59.95566877771931,
,"Remember to type as QUICKLY and ACCURATELY as possible after the 'get ready' prompt.

Ask the experimenter any questions now. Please put on the headphones.

You will get one practice trial. Press 'enter/return' when you are ready to start the practice.","Remember to type as QUICKLY and ACCURATELY as you can after the 'get ready' prompt.

Ask the experimenter any questions now. Please put on the headphones.

You will get one practice trial. Press 'enter/return' when you are ready to start the practice.",video&audio/Example_AOMI_total.png,1.8,0.7,None,None,None,None,None,frugal,ghetto,19.5,20.5,video&audio/oppose_touch_edited.mp4,video&audio/Sentence3_touch_edited.mp4,oppose,jargon,None,,,,,,,,,,,,,,,,,,,,,,,,,,,,,,,,,,,,,,,,,,,0,25,25,2,,,,,,,,,,,,,,,,,,,,,,,,,,,,,,,,,,,,,,,,,,,,,,,3556.0203899000044,3575.541614200003,None, ghetto,"['g', 'h', 'e', 't', 't', 'o', 'return']","[0.7710564000008162, 0.8832668000104604, 1.115090000006603, 1.3468685000116238, 1.4510150000132853, 1.7958369000116363, 2.154933900004835]",,,,,,,,,,11,001,A,2023_Feb_09_1114,student_TT_local,2021.1.4,59.95566877771931,
,"While you watch the video, imagine yourself typing the word on the screen, like how you did in the imagery practice. While you watch the video and imagine this, rest your hands on your keyboard but DO NOT type until AFTER you see the typing prompt.

Press 'enter/return' to go to the next page.","While watching the video, imagine yourself typing the word on the screen, like how you did in the imagery practice. While you watch the video and imagine this, rest your hands on your keyboard but DO NOT type until AFTER you see the typing prompt.

Press 'enter/return' to go to the next page.",video&audio/Example_AOMI_imagine.png,1.6,1,butter,6.5,7.5,video&audio/butter_TT_3X.mp4,video&audio/amount_TT_3X.mp4,ascend,eatery,19.5,20.5,video&audio/metric_touch_edited.mp4,video&audio/Sentence2_touch_edited.mp4,metric,plight,2 = AOMIgen,,,,,,,,,,,,,,,,,,,,,,,,,,,,,,,,,,,,,,,,,,,0,26,26,1,,,,,,,,,,,,,,,,,,,,,,,,,,,,,,,,,,,,,,,,,,,,,,,3578.7191082000063,3598.2431885999977,None, eatery,"['e', 'a', 't', 'e', 'r', 'y', 'return']","[0.36470949999056756, 0.5412416999897687, 0.6846380999922985, 0.805322599990177, 0.9731897999881767, 1.1248122999968473, 1.573172299991711]",,,,,,,,,,11,001,A,2023_Feb_09_1114,student_TT_local,2021.1.4,59.95566877771931,
,None,None,None,None,None,None,None,None,None,None,virile,apathy,19.5,20.5,video&audio/joiner_touch_edited.mp4,video&audio/Sentence6_touch_edited.mp4,joiner,revolt,None,,,,,,,,,,,,,,,,,,,,,,,,,,,,,,,,,,,,,,,,,,,0,27,27,5,,,,,,,,,,,,,,,,,,,,,,,,,,,,,,,,,,,,,,,,,,,,,,,3600.8601272000087,3620.366156200005,None, apathy,"['a', 'p', 'a', 't', 'h', 'y', 'return']","[0.6443920000019716, 0.7715841000026558, 0.8118266999954358, 1.1797095000074478, 1.2754278000065824, 1.388181700007408, 1.7317903999937698]",,,,,,,,,,11,001,A,2023_Feb_09_1114,student_TT_local,2021.1.4,59.95566877771931,
,None,None,None,None,None,None,None,None,None,None,plasma,nettle,6.5,7.5,video&audio/jailer_TT_3X.mp4,video&audio/sentence5_TT_3X.mp4,jailer,deduct,None,,,,,,,,,,,,,,,,,,,,,,,,,,,,,,,,,,,,,,,,,,,0,28,28,16,,,,,,,,,,,,,,,,,,,,,,,,,,,,,,,,,,,,,,,,,,,,,,,3623.131122400009,3629.644358500009,None, nettle,"['n', 'e', 't', 't', 'l', 'e', 'r', 'return']","[0.8054047000041464, 0.9087328000023263, 1.0692340999958105, 1.1728034999978263, 1.5006303999980446, 1.6287980000051903, 1.63719380000839, 1.9888285000051837]",,,,,,,,,,11,001,A,2023_Feb_09_1114,student_TT_local,2021.1.4,59.95566877771931,
,None,None,None,None,None,None,None,None,None,None,piston,shrill,6.5,7.5,video&audio/caviar_TT_3X.mp4,video&audio/sentence3_TT_3X.mp4,caviar,pursue,None,,,,,,,,,,,,,,,,,,,,,,,,,,,,,,,,,,,,,,,,,,,0,29,29,20,,,,,,,,,,,,,,,,,,,,,,,,,,,,,,,,,,,,,,,,,,,,,,,3632.6778030999994,3639.1911648000096,None, shrill,"['s', 'h', 'r', 'i', 'l', 'l', 'return']","[0.6617184000060661, 0.7964668000058737, 0.9084623999951873, 1.0448807000066154, 1.3090722000051755, 1.4291246999928262, 1.717324400000507]",,,,,,,,,,11,001,A,2023_Feb_09_1114,student_TT_local,2021.1.4,59.95566877771931,
,,,,,,,,,,,,,,,,,,,,typingRatingScale.png,"How would you rate your typing performance in the previous section?

Press a number on your keyboard according to the rating scale below to give your answer. Your first answer will be accepted.",,,,,,,,,,,,,,,,,,,,,,,,,,,,,,,,,,,,,,,,,,,,,0,0,0,0,,,,,,,,,,,,,,,,,,,,,,,,,,,,,,,,,,,,,,,,,,,,,,,,,['4'],[4.299074499998824],,,,,,,,11,001,A,2023_Feb_09_1114,student_TT_local,2021.1.4,59.95566877771931,
,,,,,,,,,,,,,,,,,,,,imageryCheckScale.png,"In the previous section did you imagine yourself typing?

Press a number on your keyboard according to the rating scale below to give your answer. Your first answer will be accepted.",,,,,,,,,,,,,,,,,,,,,,,,,,,,,,,,,,,,,,,,,,,,,0,1,1,1,,,,,,,,,,,,,,,,,,,,,,,,,,,,,,,,,,,,,,,,,,,,,,,,,['2'],[4.502010399999563],,,,,,,,11,001,A,2023_Feb_09_1114,student_TT_local,2021.1.4,59.95566877771931,
,None,None,None,None,None,None,None,None,None,None,devise,warble,6.5,7.5,video&audio/mangle_TT_3X.mp4,video&audio/sentence1_TT_3X.mp4,mangle,satire,None,,,,,,,,,,,,,,,,,,,,,,,,,,,,,,,,,,,,,,,,,,,,,,,,,,,,,,,,,,,0,0,0,24,,,,,,,,,,,,,,,None,"['b', 'u', 't', 't', 'e', 'r', 'return']","[0.9350287000124808, 1.1188742000085767, 1.3260924000060186, 1.4470615000027465, 1.5434562000009464, 1.6940882000053534, 1.9500116000126582]",,,,,,,,,,,,,,,,,,,,,,None,None, satire,"['s', 'a', 't', 'i', 'r', 'e', 'return']","[0.703967699999339, 0.8800790000095731, 1.4477236000093399, 1.872030900005484, 1.9518498000106774, 2.09581949999847, 2.2558801999985008]",,,11,001,A,2023_Feb_09_1114,student_TT_local,2021.1.4,59.95566877771931,
,"This is Section 2.

In this section, your task will be the same as before - that is, to type the word you see on the screen after the typing prompt. However, rather than just seeing the word before typing, you will also see a video of someone typing the same word you will need to type at various speeds. 

Press 'enter/return' to go to the next page.","This is Section 4. 

In this section, your task will be the same as before - that is, to type the word you see on the screen after the typing prompt. You will see a video again, like in Section 2, only this time, the video will show someone typing different words to what you must type at various speeds. 

Press 'enter/return' to go to the next page.",video&audio/Example_AOMI_layout.png,1.6,0.6,afford,19.5,20.5,video&audio/afford_touch_edited.mp4,video&audio/amount_touch_edited.mp4,matrix,breach,19.5,20.5,video&audio/hinder_touch_edited.mp4,video&audio/Sentence1_touch_edited.mp4,hinder,vanity,1 = AOMIspec,,,,,,,,,,,,,,,,,,,,,,,,,,,,,,,,,,,,,,,,,,,,,,,,,,,,,,,,,,,0,1,1,0,,,,,,,,,,,,,,,None,,,,,,,,,,,,,,,,,,,,,,,,,None, vanity,"['v', 'a', 'n', 'i', 't', 'y', 'return']","[0.7914741999993566, 0.8644378000026336, 1.031973699995433, 1.2480804000078933, 1.3523636000027182, 1.4638551999960328, 1.7443228000047384]",,,11,001,A,2023_Feb_09_1114,student_TT_local,2021.1.4,59.95566877771931,
,None,None,None,None,None,None,None,None,None,None,kipper,divert,6.5,7.5,video&audio/meddle_TT_3X.mp4,video&audio/sentence2_TT_3X.mp4,meddle,musket,None,,,,,,,,,,,,,,,,,,,,,,,,,,,,,,,,,,,,,,,,,,,,,,,,,,,,,,,,,,,0,2,2,25,,,,,,,,,,,,,,,None,,,,,,,,,,,,,,,,,,,,,,,,,None, musket,"['m', 'u', 's', 'k', 'e', 't', 'y', 'backspace', 'backspace', 't', 'return']","[0.8216749999992317, 0.9741188000043621, 1.0781007000041427, 1.1742150000063702, 1.3025383000058355, 1.4149103999952786, 1.4215550999942934, 1.9176226999989012, 2.158529599997564, 2.8617243000044255, 2.9176084000064293]",,,11,001,A,2023_Feb_09_1114,student_TT_local,2021.1.4,59.95566877771931,
,None,None,None,None,None,None,None,None,None,None,obsess,fusion,19.5,20.5,video&audio/zephyr_touch_edited.mp4,video&audio/Sentence5_touch_edited.mp4,zephyr,sherry,None,,,,,,,,,,,,,,,,,,,,,,,,,,,,,,,,,,,,,,,,,,,,,,,,,,,,,,,,,,,0,3,3,10,,,,,,,,,,,,,,,None,,,,,,,,,,,,,,,,,,,,,,,,,None, sherry,"['s', 'h', 'e', 'r', 'r', 'y', 'return']","[0.7254076999961399, 0.8294603999966057, 0.9895902999996906, 1.164849900000263, 1.309567899996182, 1.3815938999905484, 1.7088048000005074]",,,11,001,A,2023_Feb_09_1114,student_TT_local,2021.1.4,59.95566877771931,
,None,None,None,None,None,None,None,None,None,None,malady,revoke,19.5,20.5,video&audio/shrewd_touch_edited.mp4,video&audio/Sentence1_touch_edited.mp4,shrewd,mirage,None,,,,,,,,,,,,,,,,,,,,,,,,,,,,,,,,,,,,,,,,,,,,,,,,,,,,,,,,,,,0,4,4,6,,,,,,,,,,,,,,,None,,,,,,,,,,,,,,,,,,,,,,,,,None, mirage,"['m', 'i', 'r', 'a', 'g', 'e', 'return']","[0.773786999998265, 0.9502014000026975, 1.1979441000003135, 1.2861416000087047, 1.3894269000011263, 1.5173591000057058, 1.7901129000092624]",,,11,001,A,2023_Feb_09_1114,student_TT_local,2021.1.4,59.95566877771931,
,None,None,None,None,None,None,None,None,None,None,picket,gullet,6.5,7.5,video&audio/parish_TT_3X.mp4,video&audio/sentence5_TT_3X.mp4,parish,upkeep,None,,,,,,,,,,,,,,,,,,,,,,,,,,,,,,,,,,,,,,,,,,,,,,,,,,,,,,,,,,,0,5,5,28,,,,,,,,,,,,,,,None,,,,,,,,,,,,,,,,,,,,,,,,,None, upkeep,"['u', 'p', 'k', 'e', 'e', 'r', 'backspace', 'p', 'return']","[0.6658253999921726, 0.8498438999959035, 1.5701077999983681, 1.7217876999930013, 1.865822499996284, 2.0190413999953307, 2.3623575999954483, 2.890002899992396, 3.4979887999943458]",,,11,001,A,2023_Feb_09_1114,student_TT_local,2021.1.4,59.95566877771931,
,None,None,None,None,None,None,None,None,None,None,botany,ethnic,6.5,7.5,video&audio/trench_TT_3X.mp4,video&audio/sentence4_TT_3X.mp4,trench,fodder,None,,,,,,,,,,,,,,,,,,,,,,,,,,,,,,,,,,,,,,,,,,,,,,,,,,,,,,,,,,,0,6,6,27,,,,,,,,,,,,,,,None,,,,,,,,,,,,,,,,,,,,,,,,,None, fodder,"['f', 'o', 'd', 'd', 'e', 'r', 'return']","[0.6082342000008794, 0.6638704000069993, 0.9361787000088952, 1.063696199998958, 1.239746400009608, 1.3841408000007505, 1.5597510000079637]",,,11,001,A,2023_Feb_09_1114,student_TT_local,2021.1.4,59.95566877771931,
,"While you watch the video, imagine yourself typing the word on the screen, like how you did in the imagery practice. While you watch the video and imagine this, rest your hands on your keyboard but DO NOT type until AFTER you see the typing prompt.

Press 'enter/return' to go to the next page.","While watching the video, imagine yourself typing the word on the screen, like how you did in the imagery practice. While you watch the video and imagine this, rest your hands on your keyboard but DO NOT type until AFTER you see the typing prompt.

Press 'enter/return' to go to the next page.",video&audio/Example_AOMI_imagine.png,1.6,1,butter,6.5,7.5,video&audio/butter_TT_3X.mp4,video&audio/amount_TT_3X.mp4,ascend,eatery,19.5,20.5,video&audio/metric_touch_edited.mp4,video&audio/Sentence2_touch_edited.mp4,metric,plight,2 = AOMIgen,,,,,,,,,,,,,,,,,,,,,,,,,,,,,,,,,,,,,,,,,,,,,,,,,,,,,,,,,,,0,7,7,1,,,,,,,,,,,,,,,None,,,,,,,,,,,,,,,,,,,,,,,,,None, plight,"['p', 'l', 'i', 'g', 'h', 't', 'return']","[0.6452564999926835, 0.804911400002311, 1.0130245000036666, 1.2860647999914363, 1.445250099990517, 1.517864900000859, 1.8139890000020387]",,,11,001,A,2023_Feb_09_1114,student_TT_local,2021.1.4,59.95566877771931,
,None,None,None,None,None,None,None,None,None,None,cortex,mussel,6.5,7.5,video&audio/induce_TT_3X.mp4,video&audio/sentence4_TT_3X.mp4,induce,savant,None,,,,,,,,,,,,,,,,,,,,,,,,,,,,,,,,,,,,,,,,,,,,,,,,,,,,,,,,,,,0,8,8,21,,,,,,,,,,,,,,,None,,,,,,,,,,,,,,,,,,,,,,,,,None, savant,"['s', 'a', 'v', 'a', 'n', 't', 'return']","[1.0019060999911744, 1.1782773000013549, 1.2816378999996232, 1.3940012999955798, 1.553337499994086, 1.7773351999931037, 1.9854838000028394]",,,11,001,A,2023_Feb_09_1114,student_TT_local,2021.1.4,59.95566877771931,
,"Remember to type as QUICKLY and ACCURATELY as possible after the 'get ready' prompt.

Ask the experimenter any questions now. Please put on the headphones.

You will get one practice trial. Press 'enter/return' when you are ready to start the practice.","Remember to type as QUICKLY and ACCURATELY as you can after the 'get ready' prompt.

Ask the experimenter any questions now. Please put on the headphones.

You will get one practice trial. Press 'enter/return' when you are ready to start the practice.",video&audio/Example_AOMI_total.png,1.8,0.7,None,None,None,None,None,frugal,ghetto,19.5,20.5,video&audio/oppose_touch_edited.mp4,video&audio/Sentence3_touch_edited.mp4,oppose,jargon,None,,,,,,,,,,,,,,,,,,,,,,,,,,,,,,,,,,,,,,,,,,,,,,,,,,,,,,,,,,,0,9,9,2,,,,,,,,,,,,,,,None,,,,,,,,,,,,,,,,,,,,,,,,,None, jargon,"['j', 'a', 'r', 'g', 'o', 'n', 'return']","[0.7517623000021558, 0.8402176000090549, 1.055429300002288, 1.5434027000010246, 1.6954116000124486, 1.9033302000025287, 2.1838079000008292]",,,11,001,A,2023_Feb_09_1114,student_TT_local,2021.1.4,59.95566877771931,
,None,None,None,None,None,None,None,None,None,None,confer,tamper,19.5,20.5,video&audio/innate_touch_edited.mp4,video&audio/Sentence1_touch_edited.mp4,innate,critic,None,,,,,,,,,,,,,,,,,,,,,,,,,,,,,,,,,,,,,,,,,,,,,,,,,,,,,,,,,,,0,10,10,12,,,,,,,,,,,,,,,None,,,,,,,,,,,,,,,,,,,,,,,,,None, critic,"['c', 'r', 'i', 't', 'i', 'c', 'return']","[0.421071300006588, 0.676976900009322, 0.8059524000127567, 1.0218327000038698, 1.2053573000011966, 1.2850423000054434, 1.5255720999994082]",,,11,001,A,2023_Feb_09_1114,student_TT_local,2021.1.4,59.95566877771931,
,None,None,None,None,None,None,None,None,None,None,subtle,mucous,6.5,7.5,video&audio/fungal_TT_3X.mp4,video&audio/sentence5_TT_3X.mp4,fungal,brazen,None,,,,,,,,,,,,,,,,,,,,,,,,,,,,,,,,,,,,,,,,,,,,,,,,,,,,,,,,,,,0,11,11,22,,,,,,,,,,,,,,,None,,,,,,,,,,,,,,,,,,,,,,,,,None, brazen,"['b', 'r', 'a', 'z', 'e', 'n', 'return']","[0.7107681999914348, 0.8868903999973554, 1.3105739000020549, 1.5030441999988398, 1.7183765999943716, 2.4144951999915065, 2.574720899996464]",,,11,001,A,2023_Feb_09_1114,student_TT_local,2021.1.4,59.95566877771931,
,None,None,None,None,None,None,None,None,None,None,piston,shrill,6.5,7.5,video&audio/caviar_TT_3X.mp4,video&audio/sentence3_TT_3X.mp4,caviar,pursue,None,,,,,,,,,,,,,,,,,,,,,,,,,,,,,,,,,,,,,,,,,,,,,,,,,,,,,,,,,,,0,12,12,20,,,,,,,,,,,,,,,None,,,,,,,,,,,,,,,,,,,,,,,,,None, pursue,"['p', 'u', 'r', 's', 'u', 'e', 'return']","[0.6922898999910103, 0.9153229999938048, 1.236355300003197, 1.5314856999902986, 2.0674746000004234, 2.1078796999936458, 2.3080156999931205]",,,11,001,A,2023_Feb_09_1114,student_TT_local,2021.1.4,59.95566877771931,
,None,None,None,None,None,None,None,None,None,None,jackal,shroud,19.5,20.5,video&audio/hamlet_touch_edited.mp4,video&audio/Sentence4_touch_edited.mp4,hamlet,parole,None,,,,,,,,,,,,,,,,,,,,,,,,,,,,,,,,,,,,,,,,,,,,,,,,,,,,,,,,,,,0,13,13,9,,,,,,,,,,,,,,,None,,,,,,,,,,,,,,,,,,,,,,,,,None, parole,"['p', 'a', 'r', 'o', 'l', 'e', 'return']","[1.1148883999994723, 1.1706784999987576, 1.4353600000031292, 1.9314031999965664, 2.106981899996754, 2.171327599993674, 2.3867328999913298]",,,11,001,A,2023_Feb_09_1114,student_TT_local,2021.1.4,59.95566877771931,
,None,None,None,None,None,None,None,None,None,None,solemn,ration,19.5,20.5,video&audio/befall_touch_edited.mp4,video&audio/Sentence3_touch_edited.mp4,befall,goblet,None,,,,,,,,,,,,,,,,,,,,,,,,,,,,,,,,,,,,,,,,,,,,,,,,,,,,,,,,,,,0,14,14,8,,,,,,,,,,,,,,,None,,,,,,,,,,,,,,,,,,,,,,,,,None, goblet,"['g', 'o', 'b', 'l', 'e', 't', 'return']","[0.9201026999944588, 0.9598847000015667, 1.1044181999895955, 1.1770065999880899, 1.3371431999985361, 1.4571312999905786, 1.7532760999893071]",,,11,001,A,2023_Feb_09_1114,student_TT_local,2021.1.4,59.95566877771931,
,None,None,None,None,None,None,None,None,None,None,covert,defame,19.5,20.5,video&audio/patent_touch_edited.mp4,video&audio/Sentence6_touch_edited.mp4,patent,binder,None,,,,,,,,,,,,,,,,,,,,,,,,,,,,,,,,,,,,,,,,,,,,,,,,,,,,,,,,,,,0,15,15,11,,,,,,,,,,,,,,,None,,,,,,,,,,,,,,,,,,,,,,,,,None, binder,"['b', 'i', 'n', 'd', 'e', 'r', 'return']","[0.6707877000008011, 0.7272951999912038, 0.9262400000006892, 1.0306867999897804, 1.1822479999973439, 1.3185019999946235, 1.4153036999923643]",,,11,001,A,2023_Feb_09_1114,student_TT_local,2021.1.4,59.95566877771931,
,None,None,None,None,None,None,None,None,None,None,tariff,galley,19.5,20.5,video&audio/delude_touch_edited.mp4,video&audio/Sentence2_touch_edited.mp4,delude,strife,None,,,,,,,,,,,,,,,,,,,,,,,,,,,,,,,,,,,,,,,,,,,,,,,,,,,,,,,,,,,0,16,16,7,,,,,,,,,,,,,,,None,,,,,,,,,,,,,,,,,,,,,,,,,None, strife,"['s', 't', 'r', 'i', 'f', 'e', 'return']","[0.6190333999984432, 0.7235995999944862, 0.9154214000009233, 1.195092099995236, 1.291549000001396, 1.4906115000048885, 1.5870334999926854]",,,11,001,A,2023_Feb_09_1114,student_TT_local,2021.1.4,59.95566877771931,
,None,None,None,None,None,None,None,None,None,None,belfry,linear,6.5,7.5,video&audio/girdle_TT_3X.mp4,video&audio/sentence6_TT_3X.mp4,girdle,manure,None,,,,,,,,,,,,,,,,,,,,,,,,,,,,,,,,,,,,,,,,,,,,,,,,,,,,,,,,,,,0,17,17,23,,,,,,,,,,,,,,,None,,,,,,,,,,,,,,,,,,,,,,,,,None, manure,"['m', 'a', 'n', 'u', 'r', 'e', 'return']","[0.7620376999984728, 0.8582088999974076, 0.9535973000020022, 1.2182892999990145, 1.3219777999911457, 1.4975692000007257, 1.6178901999955997]",,,11,001,A,2023_Feb_09_1114,student_TT_local,2021.1.4,59.95566877771931,
,None,None,None,None,None,None,None,None,None,None,neural,ordain,19.5,20.5,video&audio/septic_touch_edited.mp4,video&audio/Sentence2_touch_edited.mp4,septic,quarry,None,,,,,,,,,,,,,,,,,,,,,,,,,,,,,,,,,,,,,,,,,,,,,,,,,,,,,,,,,,,0,18,18,13,,,,,,,,,,,,,,,None,,,,,,,,,,,,,,,,,,,,,,,,,None, quarry,"['q', 'u', 'a', 'r', 'r', 'y', 'return']","[0.5419895999948494, 0.6694758999947226, 0.741601300003822, 1.0613330000051064, 1.181825799998478, 1.2613675000029616, 1.573219700003392]",,,11,001,A,2023_Feb_09_1114,student_TT_local,2021.1.4,59.95566877771931,
,None,None,None,None,None,None,None,None,None,None,falter,origin,6.5,7.5,video&audio/tandem_TT_3X.mp4,video&audio/sentence4_TT_3X.mp4,tandem,potent,None,,,,,,,,,,,,,,,,,,,,,,,,,,,,,,,,,,,,,,,,,,,,,,,,,,,,,,,,,,,0,19,19,15,,,,,,,,,,,,,,,None,,,,,,,,,,,,,,,,,,,,,,,,,None, potent,"['p', 'o', 't', 'e', 'n', 't', 'return']","[0.5338696999970125, 0.7418427999946289, 1.3419929999945452, 2.054553099995246, 2.118201699995552, 2.2538832999998704, 2.4299908999964828]",,,11,001,A,2023_Feb_09_1114,student_TT_local,2021.1.4,59.95566877771931,
,None,None,None,None,None,None,None,None,None,None,debtor,uphold,6.5,7.5,video&audio/output_TT_3X.mp4,video&audio/sentence1_TT_3X.mp4,output,convoy,None,,,,,,,,,,,,,,,,,,,,,,,,,,,,,,,,,,,,,,,,,,,,,,,,,,,,,,,,,,,0,20,20,18,,,,,,,,,,,,,,,None,,,,,,,,,,,,,,,,,,,,,,,,,None, convoy,"['c', 'o', 'n', 'v', 'p', 'y', 'backspace', 'backspace', 'o', 'y', 'delete', 'return']","[0.8470902999979444, 0.9514098999934504, 1.167510500003118, 1.3275174000009429, 1.4470200999930967, 1.5751024999917718, 2.1513478999986546, 2.3918890000059037, 2.9594508000009228, 3.039562099991599, 3.223234799996135, 3.7199886000016704]",,,11,001,A,2023_Feb_09_1114,student_TT_local,2021.1.4,59.95566877771931,
,None,None,None,None,None,None,None,None,None,None,parcel,entail,19.5,20.5,video&audio/primal_touch_edited.mp4,video&audio/Sentence5_touch_edited.mp4,primal,novice,None,,,,,,,,,,,,,,,,,,,,,,,,,,,,,,,,,,,,,,,,,,,,,,,,,,,,,,,,,,,0,21,21,4,,,,,,,,,,,,,,,None,,,,,,,,,,,,,,,,,,,,,,,,,None, novice,"['n', 'o', 'v', 'i', 'c', 'e', 'bracketright', 'backspace', 'return']","[0.7303870999894571, 0.8983497000008356, 1.1717141999979503, 1.2105216999916593, 1.8105589999904623, 1.9782679999916581, 2.2266528000036487, 2.8263874999975087, 3.0505082000017865]",,,11,001,A,2023_Feb_09_1114,student_TT_local,2021.1.4,59.95566877771931,
,None,None,None,None,None,None,None,None,None,None,pulpit,mystic,19.5,20.5,video&audio/oblige_touch_edited.mp4,video&audio/Sentence4_touch_edited.mp4,oblige,infirm,None,,,,,,,,,,,,,,,,,,,,,,,,,,,,,,,,,,,,,,,,,,,,,,,,,,,,,,,,,,,0,22,22,3,,,,,,,,,,,,,,,None,,,,,,,,,,,,,,,,,,,,,,,,,None, infirm,"['i', 'n', 'i', 'f', 'r', 'm', 'backspace', 'backspace', 'backspace', 'backspace', 'f', 'i', 'r', 'm', 'return']","[0.6264496999938274, 0.8188279000023613, 1.0103240000025835, 1.106402599994908, 1.2823438000050373, 1.306414799997583, 2.2908274000074016, 2.4431823000049917, 2.5545326999999816, 2.6595215999986976, 3.3549128000013297, 3.4588746999943396, 3.5393952000013087, 3.6508257999958005, 3.9304581000033068]",,,11,001,A,2023_Feb_09_1114,student_TT_local,2021.1.4,59.95566877771931,
,None,None,None,None,None,None,None,None,None,None,cervix,export,6.5,7.5,video&audio/cobble_TT_3X.mp4,video&audio/sentence2_TT_3X.mp4,cobble,murmur,None,,,,,,,,,,,,,,,,,,,,,,,,,,,,,,,,,,,,,,,,,,,,,,,,,,,,,,,,,,,0,23,23,19,,,,,,,,,,,,,,,None,,,,,,,,,,,,,,,,,,,,,,,,,None, murmur,"['m', 'u', 'i', 'r', 'm', 'u', 'r', 'return']","[0.6797694999986561, 0.847335699989344, 0.8554405999893788, 0.9996673999994528, 1.3593644999928074, 1.5591910999937681, 1.6159570999880088, 1.9196395999897504]",,,11,001,A,2023_Feb_09_1114,student_TT_local,2021.1.4,59.95566877771931,
,None,None,None,None,None,None,None,None,None,None,hippie,herbal,19.5,20.5,video&audio/hearth_touch_edited.mp4,video&audio/Sentence3_touch_edited.mp4,hearth,sonnet,None,,,,,,,,,,,,,,,,,,,,,,,,,,,,,,,,,,,,,,,,,,,,,,,,,,,,,,,,,,,0,24,24,14,,,,,,,,,,,,,,,None,,,,,,,,,,,,,,,,,,,,,,,,,None, sonnet,"['s', 'o', 'n', 'n', 'e', 't', 'return']","[0.8743205999926431, 0.9540208999969764, 1.1776945000019623, 1.282628000000841, 1.4266035999899032, 1.5301159999944502, 1.8743183999904431]",,,11,001,A,2023_Feb_09_1114,student_TT_local,2021.1.4,59.95566877771931,
,None,None,None,None,None,None,None,None,None,None,ritual,portal,6.5,7.5,video&audio/clergy_TT_3X.mp4,video&audio/sentence6_TT_3X.mp4,clergy,coerce,None,,,,,,,,,,,,,,,,,,,,,,,,,,,,,,,,,,,,,,,,,,,,,,,,,,,,,,,,,,,0,25,25,17,,,,,,,,,,,,,,,None,,,,,,,,,,,,,,,,,,,,,,,,,None, coerce,"['c', 'o', 'e', 'r', 'c', 'e', 'return']","[0.44821659999433905, 0.5198047000012593, 0.7037959000008414, 0.8954365999961738, 1.1752957999997307, 1.2236782999971183, 1.5759492000070168]",,,11,001,A,2023_Feb_09_1114,student_TT_local,2021.1.4,59.95566877771931,
,None,None,None,None,None,None,None,None,None,None,plasma,nettle,6.5,7.5,video&audio/jailer_TT_3X.mp4,video&audio/sentence5_TT_3X.mp4,jailer,deduct,None,,,,,,,,,,,,,,,,,,,,,,,,,,,,,,,,,,,,,,,,,,,,,,,,,,,,,,,,,,,0,26,26,16,,,,,,,,,,,,,,,None,,,,,,,,,,,,,,,,,,,,,,,,,None, deduct,"['d', 'e', 'd', 'u', 'c', 't', 'return']","[0.3766304000018863, 0.5051906000007875, 0.6959405999950832, 0.9608606999972835, 1.0239597000036156, 1.136262899992289, 1.4486030999978539]",,,11,001,A,2023_Feb_09_1114,student_TT_local,2021.1.4,59.95566877771931,
,None,None,None,None,None,None,None,None,None,None,forage,allure,6.5,7.5,video&audio/campus_TT_3X.mp4,video&audio/sentence6_TT_3X.mp4,campus,legion,None,,,,,,,,,,,,,,,,,,,,,,,,,,,,,,,,,,,,,,,,,,,,,,,,,,,,,,,,,,,0,27,27,29,,,,,,,,,,,,,,,None,,,,,,,,,,,,,,,,,,,,,,,,,None, legion,"['l', 'e', 'g', 'i', 'o', 'n', 'return']","[0.37658539999392815, 0.4168490000010934, 0.6173711000010371, 0.6972525000019232, 0.825245799991535, 1.0574428999971133, 1.281122200001846]",,,11,001,A,2023_Feb_09_1114,student_TT_local,2021.1.4,59.95566877771931,
,None,None,None,None,None,None,None,None,None,None,virile,apathy,19.5,20.5,video&audio/joiner_touch_edited.mp4,video&audio/Sentence6_touch_edited.mp4,joiner,revolt,None,,,,,,,,,,,,,,,,,,,,,,,,,,,,,,,,,,,,,,,,,,,,,,,,,,,,,,,,,,,0,28,28,5,,,,,,,,,,,,,,,None,,,,,,,,,,,,,,,,,,,,,,,,,None, revolt,"['r', 'e', 'v', 'o', 'l', 'y', 'backspace', 't', 'return']","[0.7173903999937465, 0.8773845999967307, 1.0847765000071377, 1.1891704000008758, 1.3499155000026803, 1.44466989999637, 1.7343680000049062, 1.8053878000064287, 1.9412972999998601]",,,11,001,A,2023_Feb_09_1114,student_TT_local,2021.1.4,59.95566877771931,
,None,None,None,None,None,None,None,None,None,None,subdue,matron,6.5,7.5,video&audio/feudal_TT_3X.mp4,video&audio/sentence3_TT_3X.mp4,feudal,impose,None,,,,,,,,,,,,,,,,,,,,,,,,,,,,,,,,,,,,,,,,,,,,,,,,,,,,,,,,,,,0,29,29,26,,,,,,,,,,,,,,,None,,,,,,,,,,,,,,,,,,,,,,,,,None, impose,"['i', 'm', 'p', 'o', 's', 'e', 'return']","[0.6897162000095705, 0.8652163000078872, 1.056928300007712, 1.4092758000042522, 1.5692820000112988, 1.7218633000011323, 1.9129487000027439]",,,11,001,A,2023_Feb_09_1114,student_TT_local,2021.1.4,59.95566877771931,
,,,,,,,,,,,,,,,,,,,,typingRatingScale.png,"How would you rate your typing performance in the previous section?

Press a number on your keyboard according to the rating scale below to give your answer. Your first answer will be accepted.",,,,,,,,,,,,,,,,,,,,,,,,,,,,,,,,,,,,,,,,,,,,,,,,,,,,,,,,,,,,,0,0,0,0,,,,,,,,,,,,,,,,,,,,,,,,,,,,,,,,,,,,,,,,['3'],[2.0028510999982245],11,001,A,2023_Feb_09_1114,student_TT_local,2021.1.4,59.95566877771931,
,,,,,,,,,,,,,,,,,,,,visualImageryScale.png,"While imagining yourself typing, how clear was your visual image?

Press a number on your keyboard according to the rating scale below to give your answer. Your first answer will be accepted.",,,,,,,,,,,,,,,,,,,,,,,,,,,,,,,,,,,,,,,,,,,,,,,,,,,,,,,,,,,,,0,1,1,1,,,,,,,,,,,,,,,,,,,,,,,,,,,,,,,,,,,,,,,,['1'],[7.031709900009446],11,001,A,2023_Feb_09_1114,student_TT_local,2021.1.4,59.95566877771931,
,,,,,,,,,,,,,,,,,,,,kinestheticImageryScale.png,"While imagining yourself typing, how intense were the sensations associated with the imagined movement?

Press a number on your keyboard according to the rating scale below to give your answer. Your first answer will be accepted.",,,,,,,,,,,,,,,,,,,,,,,,,,,,,,,,,,,,,,,,,,,,,,,,,,,,,,,,,,,,,0,2,2,2,,,,,,,,,,,,,,,,,,,,,,,,,,,,,,,,,,,,,,,,['3'],[3.0985184000019217],11,001,A,2023_Feb_09_1114,student_TT_local,2021.1.4,59.95566877771931,
