pracWords,instr_1,instr_2,AOMI_Ima,AOMI_w,AOMI_h,practiceWords,prac_time,prac_bkgd_time,pracVid_1,pracVid_2,baseline_words,control_words,cont_time,cont_bgkd_time,first_vids,second_vids,AOMIfirst_words,AOMIsecond_words,Order,ratingScale,rateInstr,instructLoop.thisRepN,instructLoop.thisTrialN,instructLoop.thisN,instructLoop.thisIndex,practice_control.thisRepN,practice_control.thisTrialN,practice_control.thisN,practice_control.thisIndex,trials_1.thisRepN,trials_1.thisTrialN,trials_1.thisN,trials_1.thisIndex,baseRateLoop.thisRepN,baseRateLoop.thisTrialN,baseRateLoop.thisN,baseRateLoop.thisIndex,AOMIinstrLoop1.thisRepN,AOMIinstrLoop1.thisTrialN,AOMIinstrLoop1.thisN,AOMIinstrLoop1.thisIndex,AOMIpracLoop.thisRepN,AOMIpracLoop.thisTrialN,AOMIpracLoop.thisN,AOMIpracLoop.thisIndex,trials_2.thisRepN,trials_2.thisTrialN,trials_2.thisN,trials_2.thisIndex,AOMI1rateLoop.thisRepN,AOMI1rateLoop.thisTrialN,AOMI1rateLoop.thisN,AOMI1rateLoop.thisIndex,contInstrLoop.thisRepN,contInstrLoop.thisTrialN,contInstrLoop.thisN,contInstrLoop.thisIndex,contPracLoop.thisRepN,contPracLoop.thisTrialN,contPracLoop.thisN,contPracLoop.thisIndex,trials_3.thisRepN,trials_3.thisTrialN,trials_3.thisN,trials_3.thisIndex,contRateLoop.thisRepN,contRateLoop.thisTrialN,contRateLoop.thisN,contRateLoop.thisIndex,AOMIinstrLoop2.thisRepN,AOMIinstrLoop2.thisTrialN,AOMIinstrLoop2.thisN,AOMIinstrLoop2.thisIndex,AOMIpracLoop2.thisRepN,AOMIpracLoop2.thisTrialN,AOMIpracLoop2.thisN,AOMIpracLoop2.thisIndex,trials_4.thisRepN,trials_4.thisTrialN,trials_4.thisN,trials_4.thisIndex,AOMI2rateLoop.thisRepN,AOMI2rateLoop.thisTrialN,AOMI2rateLoop.thisN,AOMI2rateLoop.thisIndex,pracBkgdKeys.keys,pracKeys.keys,pracKeys.rt,pracBkgdKeys.rt,baseBkgdKeys.keys,base_typedWord,baseKeys.keys,baseKeys.rt,baseRateTypeKey.keys,baseRateTypeKey.rt,AOMI1_BkgdKeys.keys,AOMI_promptBkgdKeys.keys,AOMI1pracKeys.keys,AOMI1pracKeys.rt,AOMI1bkdgKeys.keys,AOMI1_typedWord,AOMI1keys.keys,AOMI1keys.rt,AOMI1bkdgKeys.rt,AOMI1rateTypeKey.keys,AOMI1rateTypeKey.rt,polygon_prac.started,polygon_prac.stopped,contBkgdKeys_prac.keys,contPrac_typedWord,contKeys_prac.keys,contKeys_prac.rt,polygon.started,polygon.stopped,contBkgdKeys.keys,cont_typedWord,contKeys.keys,contKeys.rt,contTypeKey.keys,contTypeKey.rt,bkgdkeys_prac2.keys,bkgdKeys4.keys,AOMI2_typedWord,keyboardCom4.keys,keyboardCom4.rt,bkgdKeys4.rt,AOMI2typeKey.keys,AOMI2typeKey.rt,participant,session,group,date,expName,psychopyVersion,frameRate,
update,,,,,,,,,,,,,,,,,,,,,,,,,,0,0,0,2,,,,,,,,,,,,,,,,,,,,,,,,,,,,,,,,,,,,,,,,,,,,,,,,,,,,,,,,,None,"['u', 'p', 'd', 'a', 't', 'e', 'return']","[0.4950508000329137, 0.9430307000875473, 1.1830667001195252, 1.3752227001823485, 1.6309794001281261, 1.8469781000167131, 1.9589602001942694]",,,,,,,,,,,,,,,,,,,,,,,,,,,,,,,,,,,,,,,,,12,001,A,2023_Feb_22_1643,student_TT_local,2021.1.4,47.65524290414549,
replay,,,,,,,,,,,,,,,,,,,,,,,,,,0,1,1,1,,,,,,,,,,,,,,,,,,,,,,,,,,,,,,,,,,,,,,,,,,,,,,,,,,,,,,,,,['r'],"['r', 'e', 'p', 'l', 'a', 'y', 'return']","[0.378300900105387, 0.5543357999995351, 0.7302052001468837, 0.954349200008437, 1.0662128999829292, 1.4584129999857396, 1.682269300101325]",[2.5966581001412123],,,,,,,,,,,,,,,,,,,,,,,,,,,,,,,,,,,,,,,,12,001,A,2023_Feb_22_1643,student_TT_local,2021.1.4,47.65524290414549,
height,,,,,,,,,,,,,,,,,,,,,,,,,,0,2,2,0,,,,,,,,,,,,,,,,,,,,,,,,,,,,,,,,,,,,,,,,,,,,,,,,,,,,,,,,,None,"['h', 'e', 'i', 'g', 'h', 't', 'return']","[0.6745509000029415, 0.8261943000834435, 0.9222061999607831, 1.1461629001423717, 1.3143879000563174, 1.4820971000008285, 1.5781986000947654]",,,,,,,,,,,,,,,,,,,,,,,,,,,,,,,,,,,,,,,,,12,001,A,2023_Feb_22_1643,student_TT_local,2021.1.4,47.65524290414549,
,None,None,None,None,None,None,None,None,None,None,subdue,matron,6.5,7.5,video&audio/feudal_TT_3X.mp4,video&audio/sentence3_TT_3X.mp4,feudal,impose,None,,,,,,,,,,,0,0,0,26,,,,,,,,,,,,,,,,,,,,,,,,,,,,,,,,,,,,,,,,,,,,,,,,,,,,,,,,,None, subdue,"['s', 'u', 'b', 'd', 'u', 'e', 'return']","[0.4590608000289649, 0.683289899956435, 0.9310898999683559, 1.187124399933964, 1.363369199912995, 1.4431551001034677, 1.6270475999917835]",,,,,,,,,,,,,,,,,,,,,,,,,,,,,,,,,,,,12,001,A,2023_Feb_22_1643,student_TT_local,2021.1.4,47.65524290414549,
,None,None,None,None,None,None,None,None,None,None,malady,revoke,19.5,20.5,video&audio/shrewd_touch_edited.mp4,video&audio/Sentence1_touch_edited.mp4,shrewd,mirage,None,,,,,,,,,,,0,1,1,6,,,,,,,,,,,,,,,,,,,,,,,,,,,,,,,,,,,,,,,,,,,,,,,,,,,,,,,,,None, malady,"['m', 'a', 'l', 'a', 'd', 'y', 'return']","[0.5304477999452502, 0.8024659000802785, 0.986486200010404, 1.2742733999621123, 1.5143770999275148, 1.6823088000528514, 1.9304695001337677]",,,,,,,,,,,,,,,,,,,,,,,,,,,,,,,,,,,,12,001,A,2023_Feb_22_1643,student_TT_local,2021.1.4,47.65524290414549,
,None,None,None,None,None,None,None,None,None,None,cortex,mussel,6.5,7.5,video&audio/induce_TT_3X.mp4,video&audio/sentence4_TT_3X.mp4,induce,savant,None,,,,,,,,,,,0,2,2,21,,,,,,,,,,,,,,,,,,,,,,,,,,,,,,,,,,,,,,,,,,,,,,,,,,,,,,,,,None, cortex,"['c', 'o', 'r', 't', 'e', 'x', 'return']","[0.6172480001114309, 0.752971800044179, 0.945195100037381, 1.1289035000372678, 1.2970592000056058, 1.625191800063476, 1.7129484000615776]",,,,,,,,,,,,,,,,,,,,,,,,,,,,,,,,,,,,12,001,A,2023_Feb_22_1643,student_TT_local,2021.1.4,47.65524290414549,
,None,None,None,None,None,None,None,None,None,None,piston,shrill,6.5,7.5,video&audio/caviar_TT_3X.mp4,video&audio/sentence3_TT_3X.mp4,caviar,pursue,None,,,,,,,,,,,0,3,3,20,,,,,,,,,,,,,,,,,,,,,,,,,,,,,,,,,,,,,,,,,,,,,,,,,,,,,,,,,None, piston,"['p', 'i', 's', 't', 'o', 'n', 'return']","[0.7090670999605209, 0.9333798000589013, 1.1172512001357973, 1.389184599975124, 1.4453863000962883, 1.6851393999531865, 1.989262199960649]",,,,,,,,,,,,,,,,,,,,,,,,,,,,,,,,,,,,12,001,A,2023_Feb_22_1643,student_TT_local,2021.1.4,47.65524290414549,
,None,None,None,None,None,None,None,None,None,None,neural,ordain,19.5,20.5,video&audio/septic_touch_edited.mp4,video&audio/Sentence2_touch_edited.mp4,septic,quarry,None,,,,,,,,,,,0,4,4,13,,,,,,,,,,,,,,,,,,,,,,,,,,,,,,,,,,,,,,,,,,,,,,,,,,,,,,,,,None, neural,"['n', 'e', 'u', 'r', 'a', 'l', 'return']","[0.4458172998856753, 0.6297218999825418, 0.782260499894619, 0.9096835998352617, 1.1416950998827815, 1.2297775000333786, 1.5096517999190837]",,,,,,,,,,,,,,,,,,,,,,,,,,,,,,,,,,,,12,001,A,2023_Feb_22_1643,student_TT_local,2021.1.4,47.65524290414549,
,None,None,None,None,None,None,None,None,None,None,parcel,entail,19.5,20.5,video&audio/primal_touch_edited.mp4,video&audio/Sentence5_touch_edited.mp4,primal,novice,None,,,,,,,,,,,0,5,5,4,,,,,,,,,,,,,,,,,,,,,,,,,,,,,,,,,,,,,,,,,,,,,,,,,,,,,,,,,None, parcel,"['p', 'a', 'c', 'e', 'l', 'backspace', 'backspace', 'backspace', 'r', 'c', 'e', 'l', 'return']","[0.4357660999521613, 0.603322200011462, 1.2275680999737233, 1.4756400000769645, 1.6116972998715937, 2.155356700066477, 2.3233926000539213, 2.4756708999630064, 2.787426099879667, 2.995486499974504, 3.1956374999135733, 3.267453300068155, 3.4996350000146776]",,,,,,,,,,,,,,,,,,,,,,,,,,,,,,,,,,,,12,001,A,2023_Feb_22_1643,student_TT_local,2021.1.4,47.65524290414549,
,None,None,None,None,None,None,None,None,None,None,jackal,shroud,19.5,20.5,video&audio/hamlet_touch_edited.mp4,video&audio/Sentence4_touch_edited.mp4,hamlet,parole,None,,,,,,,,,,,0,6,6,9,,,,,,,,,,,,,,,,,,,,,,,,,,,,,,,,,,,,,,,,,,,,,,,,,,,,,,,,,None, jackal,"['j', 'c', 'k', 'a', 'l', 'return']","[0.42619439982809126, 0.8501282997895032, 1.0899339998140931, 1.2822793999221176, 1.4418020998127759, 2.018120699794963]",,,,,,,,,,,,,,,,,,,,,,,,,,,,,,,,,,,,12,001,A,2023_Feb_22_1643,student_TT_local,2021.1.4,47.65524290414549,
,None,None,None,None,None,None,None,None,None,None,botany,ethnic,6.5,7.5,video&audio/trench_TT_3X.mp4,video&audio/sentence4_TT_3X.mp4,trench,fodder,None,,,,,,,,,,,0,7,7,27,,,,,,,,,,,,,,,,,,,,,,,,,,,,,,,,,,,,,,,,,,,,,,,,,,,,,,,,,None, botany,"['b', 'o', 't', 'n', 'a', 'backspace', 'backspace', 'a', 'n', 'y', 'return']","[0.756614200072363, 0.9086855000350624, 1.0845574999693781, 1.4684813001658767, 1.6925433001015335, 2.341243000002578, 2.5325603999663144, 2.9646372001152486, 3.0611294000409544, 3.3005751001182944, 3.660615000175312]",,,,,,,,,,,,,,,,,,,,,,,,,,,,,,,,,,,,12,001,A,2023_Feb_22_1643,student_TT_local,2021.1.4,47.65524290414549,
,None,None,None,None,None,None,None,None,None,None,forage,allure,6.5,7.5,video&audio/campus_TT_3X.mp4,video&audio/sentence6_TT_3X.mp4,campus,legion,None,,,,,,,,,,,0,8,8,29,,,,,,,,,,,,,,,,,,,,,,,,,,,,,,,,,,,,,,,,,,,,,,,,,,,,,,,,,None, forage,"['f', 'o', 'r', 'a', 'g', 'e', 'return']","[0.5958958000410348, 0.6998566000256687, 0.8439837000332773, 1.0519693999085575, 1.5958722999785095, 1.73992699990049, 1.8440195000730455]",,,,,,,,,,,,,,,,,,,,,,,,,,,,,,,,,,,,12,001,A,2023_Feb_22_1643,student_TT_local,2021.1.4,47.65524290414549,
,"While you watch the video, imagine yourself typing the word on the screen, like how you did in the imagery practice. While you watch the video and imagine this, rest your hands on your keyboard but DO NOT type until AFTER you see the typing prompt.

Press 'enter/return' to go to the next page.","While watching the video, imagine yourself typing the word on the screen, like how you did in the imagery practice. While you watch the video and imagine this, rest your hands on your keyboard but DO NOT type until AFTER you see the typing prompt.

Press 'enter/return' to go to the next page.",video&audio/Example_AOMI_imagine.png,1.6,1,butter,6.5,7.5,video&audio/butter_TT_3X.mp4,video&audio/amount_TT_3X.mp4,ascend,eatery,19.5,20.5,video&audio/metric_touch_edited.mp4,video&audio/Sentence2_touch_edited.mp4,metric,plight,2 = AOMIgen,,,,,,,,,,,0,9,9,1,,,,,,,,,,,,,,,,,,,,,,,,,,,,,,,,,,,,,,,,,,,,,,,,,,,,,,,,,None, ascend,"['a', 's', 'w', 'backspace', 'c', 'e', 'n', 'd', 'return']","[0.36943279998376966, 0.5453081999439746, 0.5774103999137878, 1.7134192998055369, 2.321451799944043, 2.5533670999575406, 2.6413802998140454, 2.7854168999474496, 2.945644599851221]",,,,,,,,,,,,,,,,,,,,,,,,,,,,,,,,,,,,12,001,A,2023_Feb_22_1643,student_TT_local,2021.1.4,47.65524290414549,
,None,None,None,None,None,None,None,None,None,None,pulpit,mystic,19.5,20.5,video&audio/oblige_touch_edited.mp4,video&audio/Sentence4_touch_edited.mp4,oblige,infirm,None,,,,,,,,,,,0,10,10,3,,,,,,,,,,,,,,,,,,,,,,,,,,,,,,,,,,,,,,,,,,,,,,,,,,,,,,,,,None, pulpit,"['p', 'u', 'l', 'p', 't', 'i', 'backspace', 'backspace', 'o', 't', 'backspace', 'backspace', 'i', 't', 'return']","[0.4635347998701036, 0.6958001998718828, 0.7914414000697434, 1.1035935999825597, 1.2714001999702305, 1.3275079999584705, 1.8234649999067187, 1.9915481000207365, 2.7115815998986363, 2.8636326999403536, 3.319506400031969, 3.4394668000750244, 3.743496499955654, 3.975724699907005, 4.55959689989686]",,,,,,,,,,,,,,,,,,,,,,,,,,,,,,,,,,,,12,001,A,2023_Feb_22_1643,student_TT_local,2021.1.4,47.65524290414549,
,"Remember to type as QUICKLY and ACCURATELY as possible after the 'get ready' prompt.

Ask the experimenter any questions now. Please put on the headphones.

You will get one practice trial. Press 'enter/return' when you are ready to start the practice.","Remember to type as QUICKLY and ACCURATELY as you can after the 'get ready' prompt.

Ask the experimenter any questions now. Please put on the headphones.

You will get one practice trial. Press 'enter/return' when you are ready to start the practice.",video&audio/Example_AOMI_total.png,1.8,0.7,None,None,None,None,None,frugal,ghetto,19.5,20.5,video&audio/oppose_touch_edited.mp4,video&audio/Sentence3_touch_edited.mp4,oppose,jargon,None,,,,,,,,,,,0,11,11,2,,,,,,,,,,,,,,,,,,,,,,,,,,,,,,,,,,,,,,,,,,,,,,,,,,,,,,,,,None, frugal,"['f', 'r', 'u', 'g', 'a', 'l', 'return']","[0.4196770000271499, 0.6684475999791175, 0.8438125001266599, 1.0118693001568317, 1.2119782001245767, 1.3317715001758188, 1.6277544000186026]",,,,,,,,,,,,,,,,,,,,,,,,,,,,,,,,,,,,12,001,A,2023_Feb_22_1643,student_TT_local,2021.1.4,47.65524290414549,
,"This is Section 2.

In this section, your task will be the same as before - that is, to type the word you see on the screen after the typing prompt. However, rather than just seeing the word before typing, you will also see a video of someone typing the same word you will need to type at various speeds. 

Press 'enter/return' to go to the next page.","This is Section 4. 

In this section, your task will be the same as before - that is, to type the word you see on the screen after the typing prompt. You will see a video again, like in Section 2, only this time, the video will show someone typing different words to what you must type at various speeds. 

Press 'enter/return' to go to the next page.",video&audio/Example_AOMI_layout.png,1.6,0.6,afford,19.5,20.5,video&audio/afford_touch_edited.mp4,video&audio/amount_touch_edited.mp4,matrix,breach,19.5,20.5,video&audio/hinder_touch_edited.mp4,video&audio/Sentence1_touch_edited.mp4,hinder,vanity,1 = AOMIspec,,,,,,,,,,,0,12,12,0,,,,,,,,,,,,,,,,,,,,,,,,,,,,,,,,,,,,,,,,,,,,,,,,,,,,,,,,,None, matrix,"['m', 'a', 't', 'r', 'i', 'x', 'return']","[0.5626848998945206, 0.7386600999161601, 1.0669334998819977, 1.226992700016126, 1.3387140999548137, 1.7628692998550832, 1.8267667999025434]",,,,,,,,,,,,,,,,,,,,,,,,,,,,,,,,,,,,12,001,A,2023_Feb_22_1643,student_TT_local,2021.1.4,47.65524290414549,
,None,None,None,None,None,None,None,None,None,None,falter,origin,6.5,7.5,video&audio/tandem_TT_3X.mp4,video&audio/sentence4_TT_3X.mp4,tandem,potent,None,,,,,,,,,,,0,13,13,15,,,,,,,,,,,,,,,,,,,,,,,,,,,,,,,,,,,,,,,,,,,,,,,,,,,,,,,,,None, falter,"['f', 'a', 't', 'backspace', 'l', 't', 'e', 'r', 'return']","[0.39155669999308884, 0.5836748001165688, 1.0956149999983609, 1.5119102001190186, 1.7916256000753492, 1.9117302999366075, 2.1837536999955773, 2.2717910001520067, 2.431561700068414]",,,,,,,,,,,,,,,,,,,,,,,,,,,,,,,,,,,,12,001,A,2023_Feb_22_1643,student_TT_local,2021.1.4,47.65524290414549,
,None,None,None,None,None,None,None,None,None,None,plasma,nettle,6.5,7.5,video&audio/jailer_TT_3X.mp4,video&audio/sentence5_TT_3X.mp4,jailer,deduct,None,,,,,,,,,,,0,14,14,16,,,,,,,,,,,,,,,,,,,,,,,,,,,,,,,,,,,,,,,,,,,,,,,,,,,,,,,,,None, plasma,"['p', 'l', 'a', 's', 'm', 'a', 'return']","[0.3534653999377042, 0.5615348001010716, 0.7297018000390381, 1.041666999924928, 1.1695096001494676, 1.2974650000687689, 1.4255506999325007]",,,,,,,,,,,,,,,,,,,,,,,,,,,,,,,,,,,,12,001,A,2023_Feb_22_1643,student_TT_local,2021.1.4,47.65524290414549,
,None,None,None,None,None,None,None,None,None,None,hippie,herbal,19.5,20.5,video&audio/hearth_touch_edited.mp4,video&audio/Sentence3_touch_edited.mp4,hearth,sonnet,None,,,,,,,,,,,0,15,15,14,,,,,,,,,,,,,,,,,,,,,,,,,,,,,,,,,,,,,,,,,,,,,,,,,,,,,,,,,None, hippie,"['h', 'i', 'p', 'p', 'i', 'e', 'return']","[0.3217423998285085, 0.5297643998637795, 0.8897233000025153, 1.0501146998722106, 1.5937315998598933, 1.7218712999019772, 1.9216400999575853]",,,,,,,,,,,,,,,,,,,,,,,,,,,,,,,,,,,,12,001,A,2023_Feb_22_1643,student_TT_local,2021.1.4,47.65524290414549,
,None,None,None,None,None,None,None,None,None,None,debtor,uphold,6.5,7.5,video&audio/output_TT_3X.mp4,video&audio/sentence1_TT_3X.mp4,output,convoy,None,,,,,,,,,,,0,16,16,18,,,,,,,,,,,,,,,,,,,,,,,,,,,,,,,,,,,,,,,,,,,,,,,,,,,,,,,,,None, debtor,"['d', 'e', 'b', 't', 'o', 'r', 'return']","[0.5825457000173628, 0.7908229001332074, 0.9031724000815302, 1.1668126001022756, 1.4788898001424968, 1.6306419000029564, 1.7826286000199616]",,,,,,,,,,,,,,,,,,,,,,,,,,,,,,,,,,,,12,001,A,2023_Feb_22_1643,student_TT_local,2021.1.4,47.65524290414549,
,None,None,None,None,None,None,None,None,None,None,solemn,ration,19.5,20.5,video&audio/befall_touch_edited.mp4,video&audio/Sentence3_touch_edited.mp4,befall,goblet,None,,,,,,,,,,,0,17,17,8,,,,,,,,,,,,,,,,,,,,,,,,,,,,,,,,,,,,,,,,,,,,,,,,,,,,,,,,,None, solemn,"['s', 'o', 'l', 'e', 'm', 'n', 'return']","[0.37329689995385706, 0.46915949997492135, 0.7012841000687331, 1.045212300028652, 1.2132526999339461, 1.3972308998927474, 1.6131831998936832]",,,,,,,,,,,,,,,,,,,,,,,,,,,,,,,,,,,,12,001,A,2023_Feb_22_1643,student_TT_local,2021.1.4,47.65524290414549,
,None,None,None,None,None,None,None,None,None,None,subtle,mucous,6.5,7.5,video&audio/fungal_TT_3X.mp4,video&audio/sentence5_TT_3X.mp4,fungal,brazen,None,,,,,,,,,,,0,18,18,22,,,,,,,,,,,,,,,,,,,,,,,,,,,,,,,,,,,,,,,,,,,,,,,,,,,,,,,,,None, subtle,"['s', 'u', 'b', 't', 'l', 'e', 'return']","[0.5947485000360757, 0.690522399963811, 0.923200000077486, 1.1865654999855906, 1.2745326000731438, 1.410615999950096, 1.65867600007914]",,,,,,,,,,,,,,,,,,,,,,,,,,,,,,,,,,,,12,001,A,2023_Feb_22_1643,student_TT_local,2021.1.4,47.65524290414549,
,None,None,None,None,None,None,None,None,None,None,covert,defame,19.5,20.5,video&audio/patent_touch_edited.mp4,video&audio/Sentence6_touch_edited.mp4,patent,binder,None,,,,,,,,,,,0,19,19,11,,,,,,,,,,,,,,,,,,,,,,,,,,,,,,,,,,,,,,,,,,,,,,,,,,,,,,,,,None, covert,"['c', 'o', 'v', 'e', 'r', 't', 'return']","[0.39199410006403923, 0.520020600175485, 0.6801025001332164, 0.9039488001726568, 1.0961968000046909, 1.2722709001973271, 1.360021200031042]",,,,,,,,,,,,,,,,,,,,,,,,,,,,,,,,,,,,12,001,A,2023_Feb_22_1643,student_TT_local,2021.1.4,47.65524290414549,
,None,None,None,None,None,None,None,None,None,None,ritual,portal,6.5,7.5,video&audio/clergy_TT_3X.mp4,video&audio/sentence6_TT_3X.mp4,clergy,coerce,None,,,,,,,,,,,0,20,20,17,,,,,,,,,,,,,,,,,,,,,,,,,,,,,,,,,,,,,,,,,,,,,,,,,,,,,,,,,None, ritual,"['r', 't', 'backspace', 'i', 't', 'u', 'a', 'p', 'semicolon', 'backspace', 'l', 'return']","[0.6558821999933571, 0.8799598999321461, 1.22404529992491, 1.4640047000721097, 1.5759517999831587, 1.8079981999471784, 1.9362631998956203, 2.0638512999285012, 2.0720522000920027, 2.7361598000861704, 3.032092599896714, 3.2318601000588387]",,,,,,,,,,,,,,,,,,,,,,,,,,,,,,,,,,,,12,001,A,2023_Feb_22_1643,student_TT_local,2021.1.4,47.65524290414549,
,None,None,None,None,None,None,None,None,None,None,picket,gullet,6.5,7.5,video&audio/parish_TT_3X.mp4,video&audio/sentence5_TT_3X.mp4,parish,upkeep,None,,,,,,,,,,,0,21,21,28,,,,,,,,,,,,,,,,,,,,,,,,,,,,,,,,,,,,,,,,,,,,,,,,,,,,,,,,,None, picket,"['p', 'i', 'k', 'c', 'backspace', 'backspace', 'c', 'k', 'e', 't', 'return']","[0.35684920009225607, 1.1730376000050455, 1.4849505999591202, 1.620929399970919, 1.8369144001044333, 2.0211028999183327, 2.261174200102687, 2.708995799999684, 2.8448681998997927, 3.061261000111699, 3.1488805001135916]",,,,,,,,,,,,,,,,,,,,,,,,,,,,,,,,,,,,12,001,A,2023_Feb_22_1643,student_TT_local,2021.1.4,47.65524290414549,
,None,None,None,None,None,None,None,None,None,None,cervix,export,6.5,7.5,video&audio/cobble_TT_3X.mp4,video&audio/sentence2_TT_3X.mp4,cobble,murmur,None,,,,,,,,,,,0,22,22,19,,,,,,,,,,,,,,,,,,,,,,,,,,,,,,,,,,,,,,,,,,,,,,,,,,,,,,,,,None, cervix,"['c', 'e', 'r', 'v', 'i', 'x', 'return']","[0.43661589990369976, 0.6684127999469638, 0.8284668000414968, 1.0606315999757499, 1.2926491000689566, 1.6848162000533193, 1.8445417999755591]",,,,,,,,,,,,,,,,,,,,,,,,,,,,,,,,,,,,12,001,A,2023_Feb_22_1643,student_TT_local,2021.1.4,47.65524290414549,
,None,None,None,None,None,None,None,None,None,None,belfry,linear,6.5,7.5,video&audio/girdle_TT_3X.mp4,video&audio/sentence6_TT_3X.mp4,girdle,manure,None,,,,,,,,,,,0,23,23,23,,,,,,,,,,,,,,,,,,,,,,,,,,,,,,,,,,,,,,,,,,,,,,,,,,,,,,,,,None, belfry,"['b', 'e', 'l', 'f', 'r', 'u', 'backspace', 'y', 'return']","[0.3695979998447001, 0.49745029979385436, 0.690069800009951, 0.9773355999495834, 2.2093350999057293, 2.4253708999603987, 2.79351759981364, 2.897482299944386, 3.0977247999981046]",,,,,,,,,,,,,,,,,,,,,,,,,,,,,,,,,,,,12,001,A,2023_Feb_22_1643,student_TT_local,2021.1.4,47.65524290414549,
,None,None,None,None,None,None,None,None,None,None,tariff,galley,19.5,20.5,video&audio/delude_touch_edited.mp4,video&audio/Sentence2_touch_edited.mp4,delude,strife,None,,,,,,,,,,,0,24,24,7,,,,,,,,,,,,,,,,,,,,,,,,,,,,,,,,,,,,,,,,,,,,,,,,,,,,,,,,,None, tariff,"['t', 'a', 'r', 'i', 'f', 'f', 'return']","[0.5802213998977095, 0.9563047999981791, 1.2043242999352515, 1.5964345999527723, 1.7161233997903764, 1.8446663999930024, 1.9563817998860031]",,,,,,,,,,,,,,,,,,,,,,,,,,,,,,,,,,,,12,001,A,2023_Feb_22_1643,student_TT_local,2021.1.4,47.65524290414549,
,None,None,None,None,None,None,None,None,None,None,obsess,fusion,19.5,20.5,video&audio/zephyr_touch_edited.mp4,video&audio/Sentence5_touch_edited.mp4,zephyr,sherry,None,,,,,,,,,,,0,25,25,10,,,,,,,,,,,,,,,,,,,,,,,,,,,,,,,,,,,,,,,,,,,,,,,,,,,,,,,,,None, obsess,"['i', 'backspace', 'o', 'b', 's', 'e', 's', 's', 'return']","[0.6931522998493165, 1.1091560998465866, 1.4456638998817652, 1.6932705999352038, 1.9413095000199974, 2.445488299941644, 2.6531823999248445, 3.0772354998625815, 3.205256599932909]",,,,,,,,,,,,,,,,,,,,,,,,,,,,,,,,,,,,12,001,A,2023_Feb_22_1643,student_TT_local,2021.1.4,47.65524290414549,
,None,None,None,None,None,None,None,None,None,None,kipper,divert,6.5,7.5,video&audio/meddle_TT_3X.mp4,video&audio/sentence2_TT_3X.mp4,meddle,musket,None,,,,,,,,,,,0,26,26,25,,,,,,,,,,,,,,,,,,,,,,,,,,,,,,,,,,,,,,,,,,,,,,,,,,,,,,,,,None, kipper,"['k', 'i', 'p', 'p', 'e', 'r', 'return']","[0.6764811999164522, 0.8528195999097079, 1.0606136999558657, 1.2201918999198824, 1.380176000064239, 1.5643233999144286, 1.9962416000198573]",,,,,,,,,,,,,,,,,,,,,,,,,,,,,,,,,,,,12,001,A,2023_Feb_22_1643,student_TT_local,2021.1.4,47.65524290414549,
,None,None,None,None,None,None,None,None,None,None,confer,tamper,19.5,20.5,video&audio/innate_touch_edited.mp4,video&audio/Sentence1_touch_edited.mp4,innate,critic,None,,,,,,,,,,,0,27,27,12,,,,,,,,,,,,,,,,,,,,,,,,,,,,,,,,,,,,,,,,,,,,,,,,,,,,,,,,,None, confer,"['c', 'o', 'n', 'f', 'e', 'r', 'return']","[0.29971420019865036, 0.4431831000838429, 0.6035353001207113, 0.8272344002034515, 1.0351847000420094, 1.1312872001435608, 1.2911582000087947]",,,,,,,,,,,,,,,,,,,,,,,,,,,,,,,,,,,,12,001,A,2023_Feb_22_1643,student_TT_local,2021.1.4,47.65524290414549,
,None,None,None,None,None,None,None,None,None,None,devise,warble,6.5,7.5,video&audio/mangle_TT_3X.mp4,video&audio/sentence1_TT_3X.mp4,mangle,satire,None,,,,,,,,,,,0,28,28,24,,,,,,,,,,,,,,,,,,,,,,,,,,,,,,,,,,,,,,,,,,,,,,,,,,,,,,,,,None, devise,"['d', 'e', 'v', 'i', 's', 'e', 'return']","[0.31307439994998276, 0.585135499946773, 0.8653835998848081, 1.001491699833423, 1.1293816999532282, 1.2411934998817742, 1.385045199887827]",,,,,,,,,,,,,,,,,,,,,,,,,,,,,,,,,,,,12,001,A,2023_Feb_22_1643,student_TT_local,2021.1.4,47.65524290414549,
,None,None,None,None,None,None,None,None,None,None,virile,apathy,19.5,20.5,video&audio/joiner_touch_edited.mp4,video&audio/Sentence6_touch_edited.mp4,joiner,revolt,None,,,,,,,,,,,0,29,29,5,,,,,,,,,,,,,,,,,,,,,,,,,,,,,,,,,,,,,,,,,,,,,,,,,,,,,,,,,None, virile,"['v', 'i', 'r', 'i', 'l', 'e', 'return']","[0.31612999993376434, 0.4602955000009388, 0.6521415999159217, 0.8680821999441832, 1.1721341998782009, 1.3401293999049813, 1.4680075000505894]",,,,,,,,,,,,,,,,,,,,,,,,,,,,,,,,,,,,12,001,A,2023_Feb_22_1643,student_TT_local,2021.1.4,47.65524290414549,
,,,,,,,,,,,,,,,,,,,,typingRatingScale.png,"How would you rate your typing performance in the previous section?

Press a number on your keyboard according to the rating scale below to give your answer. Your first answer will be accepted.",,,,,,,,,,,,,0,0,0,0,,,,,,,,,,,,,,,,,,,,,,,,,,,,,,,,,,,,,,,,,,,,,,,,,,,,,,,,,['3'],[15.213076999876648],,,,,,,,,,,,,,,,,,,,,,,,,,,,,,,,,,12,001,A,2023_Feb_22_1643,student_TT_local,2021.1.4,47.65524290414549,
,,,,,,,,,,,,,,,,,,,,imageryCheckScale.png,"In the previous section did you imagine yourself typing?

Press a number on your keyboard according to the rating scale below to give your answer. Your first answer will be accepted.",,,,,,,,,,,,,0,1,1,1,,,,,,,,,,,,,,,,,,,,,,,,,,,,,,,,,,,,,,,,,,,,,,,,,,,,,,,,,['4'],[7.5202345999423414],,,,,,,,,,,,,,,,,,,,,,,,,,,,,,,,,,12,001,A,2023_Feb_22_1643,student_TT_local,2021.1.4,47.65524290414549,
,None,None,None,None,None,None,None,None,None,None,devise,warble,6.5,7.5,video&audio/mangle_TT_3X.mp4,video&audio/sentence1_TT_3X.mp4,mangle,satire,None,,,,,,,,,,,,,,,,,,,,,,,,,,,0,0,0,24,,,,,,,,,,,,,,,,,,,,,,,,,,,,,,,,,,,,,,,,,,,,,,,None,None,"['b', 'u', 't', 't', 'e', 'r', 'return']","[0.6112311999313533, 0.9627100999932736, 1.0749244999606162, 1.4186495998874307, 1.586706900037825, 1.6746877999976277, 1.8587584998458624]",None, mangle,"['m', 'a', 'n', 'g', 'l', 'e', 'delete', 'return']","[1.651977299945429, 2.067237799987197, 2.1710782998707145, 2.4273107999470085, 2.4677028998266906, 3.011299999896437, 3.1471657999791205, 3.6113978000357747]",,,,,,,,,,,,,,,,,,,,,,,,,,12,001,A,2023_Feb_22_1643,student_TT_local,2021.1.4,47.65524290414549,
,None,None,None,None,None,None,None,None,None,None,pulpit,mystic,19.5,20.5,video&audio/oblige_touch_edited.mp4,video&audio/Sentence4_touch_edited.mp4,oblige,infirm,None,,,,,,,,,,,,,,,,,,,,,,,,,,,0,1,1,3,,,,,,,,,,,,,,,,,,,,,,,,,,,,,,,,,,,,,,,,,,,,,,,,None,,,None, oblige,"['o', 'b', 'l', 'i', 'g', 'e', 'return']","[0.6518176000099629, 0.8749182999599725, 0.9712043998297304, 1.2108961998019367, 1.3397489998023957, 1.5949904997833073, 1.699054399970919]",,,,,,,,,,,,,,,,,,,,,,,,,,12,001,A,2023_Feb_22_1643,student_TT_local,2021.1.4,47.65524290414549,
,None,None,None,None,None,None,None,None,None,None,jackal,shroud,19.5,20.5,video&audio/hamlet_touch_edited.mp4,video&audio/Sentence4_touch_edited.mp4,hamlet,parole,None,,,,,,,,,,,,,,,,,,,,,,,,,,,0,2,2,9,,,,,,,,,,,,,,,,,,,,,,,,,,,,,,,,,,,,,,,,,,,,,,,,None,,,None, hamlet,"['a', 'm', 'l', 'e', 't', 'delete', 'return']","[0.7773706000298262, 0.9289604001678526, 1.2010923000052571, 1.3051146001089364, 1.7850866001099348, 1.9290274002123624, 2.273071900010109]",,,,,,,,,,,,,,,,,,,,,,,,,,12,001,A,2023_Feb_22_1643,student_TT_local,2021.1.4,47.65524290414549,
,None,None,None,None,None,None,None,None,None,None,neural,ordain,19.5,20.5,video&audio/septic_touch_edited.mp4,video&audio/Sentence2_touch_edited.mp4,septic,quarry,None,,,,,,,,,,,,,,,,,,,,,,,,,,,0,3,3,13,,,,,,,,,,,,,,,,,,,,,,,,,,,,,,,,,,,,,,,,,,,,,,,,None,,,None, septic,"['s', 'e', 'p', 'c', 't', 'backspace', 'backspace', 't', 'i', 'c', 'return']","[0.6494553000666201, 0.8726737000979483, 0.9767895999830216, 1.448679800145328, 1.8405407001264393, 2.1925278999842703, 2.4564841999672353, 2.5128695000894368, 3.200647700112313, 3.3845848999917507, 3.504630299983546]",,,,,,,,,,,,,,,,,,,,,,,,,,12,001,A,2023_Feb_22_1643,student_TT_local,2021.1.4,47.65524290414549,
,None,None,None,None,None,None,None,None,None,None,piston,shrill,6.5,7.5,video&audio/caviar_TT_3X.mp4,video&audio/sentence3_TT_3X.mp4,caviar,pursue,None,,,,,,,,,,,,,,,,,,,,,,,,,,,0,4,4,20,,,,,,,,,,,,,,,,,,,,,,,,,,,,,,,,,,,,,,,,,,,,,,,,None,,,['return'], caviar,"['c', 'a', 'v', 'i', 'a', 'r', 'return']","[0.6208143997937441, 0.7969301999546587, 1.388861799845472, 1.5331847998313606, 1.780807999894023, 1.9887762998696417, 2.1408423997927457]",[0.17077640001662076],,,,,,,,,,,,,,,,,,,,,,,,,12,001,A,2023_Feb_22_1643,student_TT_local,2021.1.4,47.65524290414549,
,None,None,None,None,None,None,None,None,None,None,confer,tamper,19.5,20.5,video&audio/innate_touch_edited.mp4,video&audio/Sentence1_touch_edited.mp4,innate,critic,None,,,,,,,,,,,,,,,,,,,,,,,,,,,0,5,5,12,,,,,,,,,,,,,,,,,,,,,,,,,,,,,,,,,,,,,,,,,,,,,,,,None,,,['return'], innate,"['i', 'n', 'n', 'a', 't', 'e', 'return']","[0.7714482999872416, 1.003482900094241, 1.3475338001735508, 1.5474572000093758, 1.8035552001092583, 2.027437600074336, 2.187360499985516]",[0.016726699890568852],,,,,,,,,,,,,,,,,,,,,,,,,12,001,A,2023_Feb_22_1643,student_TT_local,2021.1.4,47.65524290414549,
,None,None,None,None,None,None,None,None,None,None,hippie,herbal,19.5,20.5,video&audio/hearth_touch_edited.mp4,video&audio/Sentence3_touch_edited.mp4,hearth,sonnet,None,,,,,,,,,,,,,,,,,,,,,,,,,,,0,6,6,14,,,,,,,,,,,,,,,,,,,,,,,,,,,,,,,,,,,,,,,,,,,,,,,,None,,,['return'], hearth,"['h', 'a', 'backspace', 'e', 'a', 'r', 't', 'h', 'return']","[0.6763623000588268, 1.0440051001496613, 1.7241124999709427, 1.9163609000388533, 2.0680448000784963, 2.308095399988815, 2.483932100003585, 2.603912200080231, 2.8443828001618385]",[0.007420499809086323],,,,,,,,,,,,,,,,,,,,,,,,,12,001,A,2023_Feb_22_1643,student_TT_local,2021.1.4,47.65524290414549,
,None,None,None,None,None,None,None,None,None,None,subtle,mucous,6.5,7.5,video&audio/fungal_TT_3X.mp4,video&audio/sentence5_TT_3X.mp4,fungal,brazen,None,,,,,,,,,,,,,,,,,,,,,,,,,,,0,7,7,22,,,,,,,,,,,,,,,,,,,,,,,,,,,,,,,,,,,,,,,,,,,,,,,,None,,,None, fungal,"['f', 'u', 'n', 'f', 'backspace', 'g', 'l', 'backspace', 'a', 'l', 'o', 'return']","[0.7369232999626547, 1.1048218000214547, 1.3288152001332492, 1.5609703999944031, 1.864777399925515, 2.016900100046769, 2.3289073000196368, 2.6967883000615984, 2.7692366000264883, 2.960763700073585, 2.968733699992299, 3.520737800048664]",,,,,,,,,,,,,,,,,,,,,,,,,,12,001,A,2023_Feb_22_1643,student_TT_local,2021.1.4,47.65524290414549,
,None,None,None,None,None,None,None,None,None,None,covert,defame,19.5,20.5,video&audio/patent_touch_edited.mp4,video&audio/Sentence6_touch_edited.mp4,patent,binder,None,,,,,,,,,,,,,,,,,,,,,,,,,,,0,8,8,11,,,,,,,,,,,,,,,,,,,,,,,,,,,,,,,,,,,,,,,,,,,,,,,,None,,,None, patent,"['p', 'a', 't', 'e', 'n', 't', 'return']","[0.690782300196588, 0.8265392000321299, 1.1065895999781787, 1.3066130001097918, 1.4267224001232535, 1.5706897000782192, 1.7226851000450552]",,,,,,,,,,,,,,,,,,,,,,,,,,12,001,A,2023_Feb_22_1643,student_TT_local,2021.1.4,47.65524290414549,
,"While you watch the video, imagine yourself typing the word on the screen, like how you did in the imagery practice. While you watch the video and imagine this, rest your hands on your keyboard but DO NOT type until AFTER you see the typing prompt.

Press 'enter/return' to go to the next page.","While watching the video, imagine yourself typing the word on the screen, like how you did in the imagery practice. While you watch the video and imagine this, rest your hands on your keyboard but DO NOT type until AFTER you see the typing prompt.

Press 'enter/return' to go to the next page.",video&audio/Example_AOMI_imagine.png,1.6,1,butter,6.5,7.5,video&audio/butter_TT_3X.mp4,video&audio/amount_TT_3X.mp4,ascend,eatery,19.5,20.5,video&audio/metric_touch_edited.mp4,video&audio/Sentence2_touch_edited.mp4,metric,plight,2 = AOMIgen,,,,,,,,,,,,,,,,,,,,,,,,,,,0,9,9,1,,,,,,,,,,,,,,,,,,,,,,,,,,,,,,,,,,,,,,,,,,,,,,,,None,,,None, metric,"['m', 'e', 't', 'r', 'i', 'c', 'return']","[0.5985615998506546, 0.7903522998094559, 1.0221060998737812, 1.2144998998846859, 1.3503176998347044, 1.5022048999089748, 1.678234999999404]",,,,,,,,,,,,,,,,,,,,,,,,,,12,001,A,2023_Feb_22_1643,student_TT_local,2021.1.4,47.65524290414549,
,None,None,None,None,None,None,None,None,None,None,cervix,export,6.5,7.5,video&audio/cobble_TT_3X.mp4,video&audio/sentence2_TT_3X.mp4,cobble,murmur,None,,,,,,,,,,,,,,,,,,,,,,,,,,,0,10,10,19,,,,,,,,,,,,,,,,,,,,,,,,,,,,,,,,,,,,,,,,,,,,,,,,None,,,None, cobbl,"['c', 'o', 'b', 'b', 'l', 'return']","[1.1621354999952018, 1.386056900024414, 1.5859846000093967, 1.8747056999709457, 2.0500294000376016, 2.322205000091344]",,,,,,,,,,,,,,,,,,,,,,,,,,12,001,A,2023_Feb_22_1643,student_TT_local,2021.1.4,47.65524290414549,
,None,None,None,None,None,None,None,None,None,None,debtor,uphold,6.5,7.5,video&audio/output_TT_3X.mp4,video&audio/sentence1_TT_3X.mp4,output,convoy,None,,,,,,,,,,,,,,,,,,,,,,,,,,,0,11,11,18,,,,,,,,,,,,,,,,,,,,,,,,,,,,,,,,,,,,,,,,,,,,,,,,None,,,['return'], output,"['o', 'u', 't', 'p', 'u', 't', 'return']","[0.6966283998917788, 0.9287838998716325, 1.1285303998738527, 1.3607365998905152, 1.6330579000059515, 1.8485187999904156, 2.0491569000296295]",[0.19353419984690845],,,,,,,,,,,,,,,,,,,,,,,,,12,001,A,2023_Feb_22_1643,student_TT_local,2021.1.4,47.65524290414549,
,None,None,None,None,None,None,None,None,None,None,kipper,divert,6.5,7.5,video&audio/meddle_TT_3X.mp4,video&audio/sentence2_TT_3X.mp4,meddle,musket,None,,,,,,,,,,,,,,,,,,,,,,,,,,,0,12,12,25,,,,,,,,,,,,,,,,,,,,,,,,,,,,,,,,,,,,,,,,,,,,,,,,None,,,None, meddle,"['m', 'e', 'd', 'd', 'l', 'e', 'return']","[0.5614704999607056, 0.7536616998258978, 0.953592199832201, 1.1616357997991145, 1.27348449989222, 1.4255589998792857, 1.5538018997758627]",,,,,,,,,,,,,,,,,,,,,,,,,,12,001,A,2023_Feb_22_1643,student_TT_local,2021.1.4,47.65524290414549,
,None,None,None,None,None,None,None,None,None,None,picket,gullet,6.5,7.5,video&audio/parish_TT_3X.mp4,video&audio/sentence5_TT_3X.mp4,parish,upkeep,None,,,,,,,,,,,,,,,,,,,,,,,,,,,0,13,13,28,,,,,,,,,,,,,,,,,,,,,,,,,,,,,,,,,,,,,,,,,,,,,,,,None,,,None, parish,"['p', 'a', 'r', 'i', 's', 'h', 'return']","[0.7120777000673115, 0.9201791000086814, 1.144459499977529, 1.3209640001878142, 1.4400941000785679, 1.57623380003497, 1.9201992000453174]",,,,,,,,,,,,,,,,,,,,,,,,,,12,001,A,2023_Feb_22_1643,student_TT_local,2021.1.4,47.65524290414549,
,None,None,None,None,None,None,None,None,None,None,belfry,linear,6.5,7.5,video&audio/girdle_TT_3X.mp4,video&audio/sentence6_TT_3X.mp4,girdle,manure,None,,,,,,,,,,,,,,,,,,,,,,,,,,,0,14,14,23,,,,,,,,,,,,,,,,,,,,,,,,,,,,,,,,,,,,,,,,,,,,,,,,None,,,None, girdle,"['g', 'i', 'r', 'l', 'd', 'backspace', 'backspace', 'd', 'o', 'e', 'backspace', 'backspace', 'l', 'e', 'return']","[0.567627300042659, 0.7518615999724716, 0.8796540000475943, 1.3437125000637025, 1.75955619988963, 2.071773099945858, 2.2316038999706507, 2.391693799989298, 2.54361639986746, 2.6476121000014246, 3.039798399899155, 3.175960300024599, 3.70368400006555, 3.8077026000246406, 4.4155506999231875]",,,,,,,,,,,,,,,,,,,,,,,,,,12,001,A,2023_Feb_22_1643,student_TT_local,2021.1.4,47.65524290414549,
,None,None,None,None,None,None,None,None,None,None,subdue,matron,6.5,7.5,video&audio/feudal_TT_3X.mp4,video&audio/sentence3_TT_3X.mp4,feudal,impose,None,,,,,,,,,,,,,,,,,,,,,,,,,,,0,15,15,26,,,,,,,,,,,,,,,,,,,,,,,,,,,,,,,,,,,,,,,,,,,,,,,,None,,,None, feudal,"['f', 'e', 'u', 'd', 'a', 'l', 'return']","[0.6535362000577152, 0.8054698999039829, 0.9977732000406832, 1.1815130000468343, 1.341527699958533, 1.469493699958548, 1.8534510999452323]",,,,,,,,,,,,,,,,,,,,,,,,,,12,001,A,2023_Feb_22_1643,student_TT_local,2021.1.4,47.65524290414549,
,None,None,None,None,None,None,None,None,None,None,obsess,fusion,19.5,20.5,video&audio/zephyr_touch_edited.mp4,video&audio/Sentence5_touch_edited.mp4,zephyr,sherry,None,,,,,,,,,,,,,,,,,,,,,,,,,,,0,16,16,10,,,,,,,,,,,,,,,,,,,,,,,,,,,,,,,,,,,,,,,,,,,,,,,,None,,,None, zephyr,"['z', 'z', 'backspace', 'e', 'p', 'h', 'y', 'r', 'return']","[0.5968687999993563, 0.7409401999320835, 1.1887539001181722, 1.3408927000127733, 1.9489154000766575, 2.1250497999135405, 2.564788700081408, 2.6851312001235783, 2.8690070000011474]",,,,,,,,,,,,,,,,,,,,,,,,,,12,001,A,2023_Feb_22_1643,student_TT_local,2021.1.4,47.65524290414549,
,None,None,None,None,None,None,None,None,None,None,virile,apathy,19.5,20.5,video&audio/joiner_touch_edited.mp4,video&audio/Sentence6_touch_edited.mp4,joiner,revolt,None,,,,,,,,,,,,,,,,,,,,,,,,,,,0,17,17,5,,,,,,,,,,,,,,,,,,,,,,,,,,,,,,,,,,,,,,,,,,,,,,,,None,,,None, joiner,"['j', 'o', 'i', 'n', 'e', 'r', 'return']","[0.6557603999972343, 0.9280196998734027, 1.1119903000071645, 1.3439361997880042, 1.632392399944365, 1.8240847999695688, 1.9597157000098377]",,,,,,,,,,,,,,,,,,,,,,,,,,12,001,A,2023_Feb_22_1643,student_TT_local,2021.1.4,47.65524290414549,
,"This is Section 2.

In this section, your task will be the same as before - that is, to type the word you see on the screen after the typing prompt. However, rather than just seeing the word before typing, you will also see a video of someone typing the same word you will need to type at various speeds. 

Press 'enter/return' to go to the next page.","This is Section 4. 

In this section, your task will be the same as before - that is, to type the word you see on the screen after the typing prompt. You will see a video again, like in Section 2, only this time, the video will show someone typing different words to what you must type at various speeds. 

Press 'enter/return' to go to the next page.",video&audio/Example_AOMI_layout.png,1.6,0.6,afford,19.5,20.5,video&audio/afford_touch_edited.mp4,video&audio/amount_touch_edited.mp4,matrix,breach,19.5,20.5,video&audio/hinder_touch_edited.mp4,video&audio/Sentence1_touch_edited.mp4,hinder,vanity,1 = AOMIspec,,,,,,,,,,,,,,,,,,,,,,,,,,,0,18,18,0,,,,,,,,,,,,,,,,,,,,,,,,,,,,,,,,,,,,,,,,,,,,,,,,None,,,None, hinder,"['h', 'i', 'n', 'd', 'e', 'r', 'return']","[0.5755290000233799, 0.7354196000378579, 0.9594682999886572, 1.2634799000807106, 1.4474104000255466, 1.6234061000868678, 1.7514660998713225]",,,,,,,,,,,,,,,,,,,,,,,,,,12,001,A,2023_Feb_22_1643,student_TT_local,2021.1.4,47.65524290414549,
,None,None,None,None,None,None,None,None,None,None,plasma,nettle,6.5,7.5,video&audio/jailer_TT_3X.mp4,video&audio/sentence5_TT_3X.mp4,jailer,deduct,None,,,,,,,,,,,,,,,,,,,,,,,,,,,0,19,19,16,,,,,,,,,,,,,,,,,,,,,,,,,,,,,,,,,,,,,,,,,,,,,,,,None,,,None, jailer5,"['j', 'a', 'i', 'l', 'e', 'r', '5', 'return']","[0.9215703997761011, 1.1056707999669015, 1.201507199788466, 1.4659075997769833, 1.8496522998902947, 1.9695656998082995, 1.9937027997802943, 2.154193799942732]",,,,,,,,,,,,,,,,,,,,,,,,,,12,001,A,2023_Feb_22_1643,student_TT_local,2021.1.4,47.65524290414549,
,None,None,None,None,None,None,None,None,None,None,parcel,entail,19.5,20.5,video&audio/primal_touch_edited.mp4,video&audio/Sentence5_touch_edited.mp4,primal,novice,None,,,,,,,,,,,,,,,,,,,,,,,,,,,0,20,20,4,,,,,,,,,,,,,,,,,,,,,,,,,,,,,,,,,,,,,,,,,,,,,,,,None,,,None, primal,"['p', 'r', 'i', 'm', 'a', 'l', 'return']","[0.46516129979863763, 0.7211952998768538, 0.8571079999674112, 1.1373882999178022, 1.2811217999551445, 1.4656206998042762, 1.8653545998968184]",,,,,,,,,,,,,,,,,,,,,,,,,,12,001,A,2023_Feb_22_1643,student_TT_local,2021.1.4,47.65524290414549,
,None,None,None,None,None,None,None,None,None,None,forage,allure,6.5,7.5,video&audio/campus_TT_3X.mp4,video&audio/sentence6_TT_3X.mp4,campus,legion,None,,,,,,,,,,,,,,,,,,,,,,,,,,,0,21,21,29,,,,,,,,,,,,,,,,,,,,,,,,,,,,,,,,,,,,,,,,,,,,,,,,None,,,['return'], campus,"['c', 'a', 'm', 'p', 'u', 's', 'return']","[0.5989211001433432, 0.8070486001670361, 0.982802800135687, 1.223020400153473, 1.51147500006482, 1.695033400086686, 1.8311122001614422]",[0.08676750003360212],,,,,,,,,,,,,,,,,,,,,,,,,12,001,A,2023_Feb_22_1643,student_TT_local,2021.1.4,47.65524290414549,
,None,None,None,None,None,None,None,None,None,None,tariff,galley,19.5,20.5,video&audio/delude_touch_edited.mp4,video&audio/Sentence2_touch_edited.mp4,delude,strife,None,,,,,,,,,,,,,,,,,,,,,,,,,,,0,22,22,7,,,,,,,,,,,,,,,,,,,,,,,,,,,,,,,,,,,,,,,,,,,,,,,,None,,,None, delude,"['d', 'e', 'l', 'u', 'd', 'e', 'return']","[0.6445718000177294, 0.8441496000159532, 1.132814999902621, 1.4204396000131965, 1.7081839998718351, 1.9160829000175, 2.100398699985817]",,,,,,,,,,,,,,,,,,,,,,,,,,12,001,A,2023_Feb_22_1643,student_TT_local,2021.1.4,47.65524290414549,
,None,None,None,None,None,None,None,None,None,None,malady,revoke,19.5,20.5,video&audio/shrewd_touch_edited.mp4,video&audio/Sentence1_touch_edited.mp4,shrewd,mirage,None,,,,,,,,,,,,,,,,,,,,,,,,,,,0,23,23,6,,,,,,,,,,,,,,,,,,,,,,,,,,,,,,,,,,,,,,,,,,,,,,,,None,,,None, shrewd,"['s', 'h', 'r', 'w', 'backspace', 'e', 'w', 'd', 'return']","[0.710887499852106, 0.9273188998922706, 1.1349558997899294, 1.3429633998312056, 1.9589507998898625, 2.111751499818638, 2.2709073999430984, 2.46295619988814, 2.623652399983257]",,,,,,,,,,,,,,,,,,,,,,,,,,12,001,A,2023_Feb_22_1643,student_TT_local,2021.1.4,47.65524290414549,
,None,None,None,None,None,None,None,None,None,None,cortex,mussel,6.5,7.5,video&audio/induce_TT_3X.mp4,video&audio/sentence4_TT_3X.mp4,induce,savant,None,,,,,,,,,,,,,,,,,,,,,,,,,,,0,24,24,21,,,,,,,,,,,,,,,,,,,,,,,,,,,,,,,,,,,,,,,,,,,,,,,,None,,,None, induce,"['i', 'n', 'd', 'u', 'c', 'e', 'return']","[0.6980959000065923, 0.9228550000116229, 1.114279800094664, 1.2986826000269502, 1.4500269999261945, 1.650048099923879, 1.7940474001225084]",,,,,,,,,,,,,,,,,,,,,,,,,,12,001,A,2023_Feb_22_1643,student_TT_local,2021.1.4,47.65524290414549,
,None,None,None,None,None,None,None,None,None,None,botany,ethnic,6.5,7.5,video&audio/trench_TT_3X.mp4,video&audio/sentence4_TT_3X.mp4,trench,fodder,None,,,,,,,,,,,,,,,,,,,,,,,,,,,0,25,25,27,,,,,,,,,,,,,,,,,,,,,,,,,,,,,,,,,,,,,,,,,,,,,,,,None,,,None, trench,"['t', 'r', 'e', 'n', 'c', 'h', 'return']","[0.6067669000476599, 0.8069132000673562, 0.9748573999386281, 1.1831062999553978, 1.3350255999248475, 1.4308946998789907, 1.679079300025478]",,,,,,,,,,,,,,,,,,,,,,,,,,12,001,A,2023_Feb_22_1643,student_TT_local,2021.1.4,47.65524290414549,
,"Remember to type as QUICKLY and ACCURATELY as possible after the 'get ready' prompt.

Ask the experimenter any questions now. Please put on the headphones.

You will get one practice trial. Press 'enter/return' when you are ready to start the practice.","Remember to type as QUICKLY and ACCURATELY as you can after the 'get ready' prompt.

Ask the experimenter any questions now. Please put on the headphones.

You will get one practice trial. Press 'enter/return' when you are ready to start the practice.",video&audio/Example_AOMI_total.png,1.8,0.7,None,None,None,None,None,frugal,ghetto,19.5,20.5,video&audio/oppose_touch_edited.mp4,video&audio/Sentence3_touch_edited.mp4,oppose,jargon,None,,,,,,,,,,,,,,,,,,,,,,,,,,,0,26,26,2,,,,,,,,,,,,,,,,,,,,,,,,,,,,,,,,,,,,,,,,,,,,,,,,None,,,None, oppose,"['p', 'backspace', 'o', 'p', 'p', 'o', 's', 'e', 'return']","[0.8489328001160175, 1.2330056000500917, 1.6329169000964612, 1.8890015000943094, 2.0489827001001686, 2.3128744999412447, 2.5848511999938637, 2.7452030000276864, 3.104897400131449]",,,,,,,,,,,,,,,,,,,,,,,,,,12,001,A,2023_Feb_22_1643,student_TT_local,2021.1.4,47.65524290414549,
,None,None,None,None,None,None,None,None,None,None,solemn,ration,19.5,20.5,video&audio/befall_touch_edited.mp4,video&audio/Sentence3_touch_edited.mp4,befall,goblet,None,,,,,,,,,,,,,,,,,,,,,,,,,,,0,27,27,8,,,,,,,,,,,,,,,,,,,,,,,,,,,,,,,,,,,,,,,,,,,,,,,,None,,,None, befall,"['b', 'e', 'f', 'a', 'l', 'l', 'return']","[0.6099646999500692, 0.7859763000160456, 0.99400579999201, 1.18604759988375, 1.3379075999837369, 1.4663972998969257, 1.9541014998685569]",,,,,,,,,,,,,,,,,,,,,,,,,,12,001,A,2023_Feb_22_1643,student_TT_local,2021.1.4,47.65524290414549,
,None,None,None,None,None,None,None,None,None,None,ritual,portal,6.5,7.5,video&audio/clergy_TT_3X.mp4,video&audio/sentence6_TT_3X.mp4,clergy,coerce,None,,,,,,,,,,,,,,,,,,,,,,,,,,,0,28,28,17,,,,,,,,,,,,,,,,,,,,,,,,,,,,,,,,,,,,,,,,,,,,,,,,None,,,None, clergy,"['c', 'l', 'e', 'r', 'y', 'return']","[1.1835121000185609, 1.3275383000727743, 1.6474316001404077, 1.847517600050196, 2.7514015999622643, 2.8718230000231415]",,,,,,,,,,,,,,,,,,,,,,,,,,12,001,A,2023_Feb_22_1643,student_TT_local,2021.1.4,47.65524290414549,
,None,None,None,None,None,None,None,None,None,None,falter,origin,6.5,7.5,video&audio/tandem_TT_3X.mp4,video&audio/sentence4_TT_3X.mp4,tandem,potent,None,,,,,,,,,,,,,,,,,,,,,,,,,,,0,29,29,15,,,,,,,,,,,,,,,,,,,,,,,,,,,,,,,,,,,,,,,,,,,,,,,,None,,,None, tandem,"['t', 'a', 'n', 'd', 'e', 'm', 'return']","[0.6057431998196989, 1.1020247999113053, 1.2782164998352528, 1.4218317000195384, 1.6697042998857796, 2.0541192998643965, 2.278265899978578]",,,,,,,,,,,,,,,,,,,,,,,,,,12,001,A,2023_Feb_22_1643,student_TT_local,2021.1.4,47.65524290414549,
,,,,,,,,,,,,,,,,,,,,typingRatingScale.png,"How would you rate your typing performance in the previous section?

Press a number on your keyboard according to the rating scale below to give your answer. Your first answer will be accepted.",,,,,,,,,,,,,,,,,,,,,,,,,,,,,0,0,0,0,,,,,,,,,,,,,,,,,,,,,,,,,,,,,,,,,,,,,,,,,,,,,,,,,,,,['2'],[4.367518700193614],,,,,,,,,,,,,,,,,,,,,,,12,001,A,2023_Feb_22_1643,student_TT_local,2021.1.4,47.65524290414549,
,,,,,,,,,,,,,,,,,,,,visualImageryScale.png,"While imagining yourself typing, how clear was your visual image?

Press a number on your keyboard according to the rating scale below to give your answer. Your first answer will be accepted.",,,,,,,,,,,,,,,,,,,,,,,,,,,,,0,1,1,1,,,,,,,,,,,,,,,,,,,,,,,,,,,,,,,,,,,,,,,,,,,,,,,,,,,,['3'],[6.280789300100878],,,,,,,,,,,,,,,,,,,,,,,12,001,A,2023_Feb_22_1643,student_TT_local,2021.1.4,47.65524290414549,
,,,,,,,,,,,,,,,,,,,,kinestheticImageryScale.png,"While imagining yourself typing, how intense were the sensations associated with the imagined movement?

Press a number on your keyboard according to the rating scale below to give your answer. Your first answer will be accepted.",,,,,,,,,,,,,,,,,,,,,,,,,,,,,0,2,2,2,,,,,,,,,,,,,,,,,,,,,,,,,,,,,,,,,,,,,,,,,,,,,,,,,,,,['3'],[6.758310199948028],,,,,,,,,,,,,,,,,,,,,,,12,001,A,2023_Feb_22_1643,student_TT_local,2021.1.4,47.65524290414549,
,None,None,None,None,None,None,None,None,None,None,botany,ethnic,6.5,7.5,video&audio/trench_TT_3X.mp4,video&audio/sentence4_TT_3X.mp4,trench,fodder,None,,,,,,,,,,,,,,,,,,,,,,,,,,,,,,,,,,,,,,,,,,,0,0,0,27,,,,,,,,,,,,,,,,,,,,,,,,,,,,,,,,,,,,,,,,,,4209.858528099954,4216.376936400076,None, butter,"['b', 'u', 't', 't', 'e', 'r', 'return']","[0.6642330000177026, 0.9040608999785036, 1.1359103000722826, 1.2958847999107093, 1.5123133999295533, 1.6242023000959307, 1.72811200004071]",4237.624957900029,4244.123817000072,None, ethnic,"['e', 't', 'n', 'c', 'return']","[0.823357000015676, 1.0795277999714017, 1.575005599996075, 1.8951489999890327, 2.0869078999385238]",,,,,,,,,,,12,001,A,2023_Feb_22_1643,student_TT_local,2021.1.4,47.65524290414549,
,None,None,None,None,None,None,None,None,None,None,cortex,mussel,6.5,7.5,video&audio/induce_TT_3X.mp4,video&audio/sentence4_TT_3X.mp4,induce,savant,None,,,,,,,,,,,,,,,,,,,,,,,,,,,,,,,,,,,,,,,,,,,0,1,1,21,,,,,,,,,,,,,,,,,,,,,,,,,,,,,,,,,,,,,,,,,,,,,,,,4247.272806100082,4253.789461500011,None, mussel,"['m', 'u', 's', 's', 'e', 'l', 'return']","[0.7717235998716205, 1.0033970000222325, 1.1315615000203252, 1.291632500011474, 1.4915932998992503, 1.6355121999513358, 2.1234376998618245]",,,,,,,,,,,12,001,A,2023_Feb_22_1643,student_TT_local,2021.1.4,47.65524290414549,
,None,None,None,None,None,None,None,None,None,None,ritual,portal,6.5,7.5,video&audio/clergy_TT_3X.mp4,video&audio/sentence6_TT_3X.mp4,clergy,coerce,None,,,,,,,,,,,,,,,,,,,,,,,,,,,,,,,,,,,,,,,,,,,0,2,2,17,,,,,,,,,,,,,,,,,,,,,,,,,,,,,,,,,,,,,,,,,,,,,,,,4256.960574100027,4263.475663499907,None, portal,"['p', 'o', 'r', 't', 'a', 'l', 'return']","[0.7573432000353932, 0.9808654000516981, 1.1168432000558823, 1.309168600011617, 1.4929567000363022, 1.5968341000843793, 1.796901100082323]",,,,,,,,,,,12,001,A,2023_Feb_22_1643,student_TT_local,2021.1.4,47.65524290414549,
,None,None,None,None,None,None,None,None,None,None,virile,apathy,19.5,20.5,video&audio/joiner_touch_edited.mp4,video&audio/Sentence6_touch_edited.mp4,joiner,revolt,None,,,,,,,,,,,,,,,,,,,,,,,,,,,,,,,,,,,,,,,,,,,0,3,3,5,,,,,,,,,,,,,,,,,,,,,,,,,,,,,,,,,,,,,,,,,,,,,,,,4266.312676999951,4285.828540300019,None, apathy,"['a', 'p', 'a', 't', 'h', 'y', 'return']","[0.7246757000684738, 0.8610064999666065, 0.9645215999335051, 1.276594900060445, 1.4041524999774992, 1.5404115000274032, 1.7722400999628007]",,,,,,,,,,,12,001,A,2023_Feb_22_1643,student_TT_local,2021.1.4,47.65524290414549,
,None,None,None,None,None,None,None,None,None,None,belfry,linear,6.5,7.5,video&audio/girdle_TT_3X.mp4,video&audio/sentence6_TT_3X.mp4,girdle,manure,None,,,,,,,,,,,,,,,,,,,,,,,,,,,,,,,,,,,,,,,,,,,0,4,4,23,,,,,,,,,,,,,,,,,,,,,,,,,,,,,,,,,,,,,,,,,,,,,,,,4288.643261299934,4295.159813700011,None, linear,"['l', 'i', 'n', 'e', 'a', 'r', 'return']","[0.7446224999148399, 0.9924478000029922, 1.184847499942407, 1.3285296000540257, 1.4968558999244124, 1.7206496000289917, 1.8964021001011133]",,,,,,,,,,,12,001,A,2023_Feb_22_1643,student_TT_local,2021.1.4,47.65524290414549,
,None,None,None,None,None,None,None,None,None,None,covert,defame,19.5,20.5,video&audio/patent_touch_edited.mp4,video&audio/Sentence6_touch_edited.mp4,patent,binder,None,,,,,,,,,,,,,,,,,,,,,,,,,,,,,,,,,,,,,,,,,,,0,5,5,11,,,,,,,,,,,,,,,,,,,,,,,,,,,,,,,,,,,,,,,,,,,,,,,,4298.101013800129,4317.615205500042,None, defame,"['d', 'e', 'f', 'a', 'm', 'e', 'return']","[0.8327476000413299, 1.0327643998898566, 1.4568556000012904, 1.6647647998761386, 1.7611370999366045, 1.936712000053376, 2.153171200072393]",,,,,,,,,,,12,001,A,2023_Feb_22_1643,student_TT_local,2021.1.4,47.65524290414549,
,None,None,None,None,None,None,None,None,None,None,debtor,uphold,6.5,7.5,video&audio/output_TT_3X.mp4,video&audio/sentence1_TT_3X.mp4,output,convoy,None,,,,,,,,,,,,,,,,,,,,,,,,,,,,,,,,,,,,,,,,,,,0,6,6,18,,,,,,,,,,,,,,,,,,,,,,,,,,,,,,,,,,,,,,,,,,,,,,,,4320.805472899927,4327.32251580013,None, uphold,"['u', 'p', 'h', 'o', 'l', 'd', 'return']","[1.0144448999781162, 1.126534900162369, 1.3425283001270145, 1.5263676999602467, 1.7187749999575317, 1.7984760999679565, 1.9503156000282615]",,,,,,,,,,,12,001,A,2023_Feb_22_1643,student_TT_local,2021.1.4,47.65524290414549,
,None,None,None,None,None,None,None,None,None,None,solemn,ration,19.5,20.5,video&audio/befall_touch_edited.mp4,video&audio/Sentence3_touch_edited.mp4,befall,goblet,None,,,,,,,,,,,,,,,,,,,,,,,,,,,,,,,,,,,,,,,,,,,0,7,7,8,,,,,,,,,,,,,,,,,,,,,,,,,,,,,,,,,,,,,,,,,,,,,,,,4330.304917700123,4349.820107100066,None, ratioj,"['r', 'a', 't', 'i', 'o', 'j', 'n', 'return']","[0.6264859000220895, 0.8428140000905842, 1.4747590001206845, 1.6185097000561655, 1.690417299978435, 1.9224429000169039, 1.9306743999477476, 2.210478600114584]",,,,,,,,,,,12,001,A,2023_Feb_22_1643,student_TT_local,2021.1.4,47.65524290414549,
,None,None,None,None,None,None,None,None,None,None,hippie,herbal,19.5,20.5,video&audio/hearth_touch_edited.mp4,video&audio/Sentence3_touch_edited.mp4,hearth,sonnet,None,,,,,,,,,,,,,,,,,,,,,,,,,,,,,,,,,,,,,,,,,,,0,8,8,14,,,,,,,,,,,,,,,,,,,,,,,,,,,,,,,,,,,,,,,,,,,,,,,,4353.073470100062,4372.588452799944,None, herbal,"['h', 'e', 'r', 'b', 'a', 'l', 'return']","[0.7004235000349581, 0.8363097999244928, 1.0207710999529809, 1.1563228000886738, 1.3484666000586003, 1.524271999951452, 1.9084699000231922]",,,,,,,,,,,12,001,A,2023_Feb_22_1643,student_TT_local,2021.1.4,47.65524290414549,
,None,None,None,None,None,None,None,None,None,None,picket,gullet,6.5,7.5,video&audio/parish_TT_3X.mp4,video&audio/sentence5_TT_3X.mp4,parish,upkeep,None,,,,,,,,,,,,,,,,,,,,,,,,,,,,,,,,,,,,,,,,,,,0,9,9,28,,,,,,,,,,,,,,,,,,,,,,,,,,,,,,,,,,,,,,,,,,,,,,,,4375.52888639993,4382.04538409994,None, gullet,"['g', 'u', 'l', 'l', 'e', 't', 'return']","[0.7233221000060439, 0.8992081000469625, 1.1392902999650687, 1.2752403998747468, 1.3792790998704731, 1.6033739000558853, 1.779372900025919]",,,,,,,,,,,12,001,A,2023_Feb_22_1643,student_TT_local,2021.1.4,47.65524290414549,
,None,None,None,None,None,None,None,None,None,None,kipper,divert,6.5,7.5,video&audio/meddle_TT_3X.mp4,video&audio/sentence2_TT_3X.mp4,meddle,musket,None,,,,,,,,,,,,,,,,,,,,,,,,,,,,,,,,,,,,,,,,,,,0,10,10,25,,,,,,,,,,,,,,,,,,,,,,,,,,,,,,,,,,,,,,,,,,,,,,,,4412.857811300084,4419.374615299981,None, divert,"['d', 'i', 'v', 'e', 'r', 't', 'return']","[0.7845032999757677, 0.9284981999080628, 1.0403967997990549, 1.2807645997963846, 1.3847876999061555, 1.584368099924177, 1.976344299968332]",,,,,,,,,,,12,001,A,2023_Feb_22_1643,student_TT_local,2021.1.4,47.65524290414549,
,None,None,None,None,None,None,None,None,None,None,malady,revoke,19.5,20.5,video&audio/shrewd_touch_edited.mp4,video&audio/Sentence1_touch_edited.mp4,shrewd,mirage,None,,,,,,,,,,,,,,,,,,,,,,,,,,,,,,,,,,,,,,,,,,,0,11,11,6,,,,,,,,,,,,,,,,,,,,,,,,,,,,,,,,,,,,,,,,,,,,,,,,4422.399816000136,4441.913697700016,None, revoke,"['r', 'e', 'v', 'o', 'k', 'e', 'return']","[0.8719768999144435, 1.071785399923101, 1.2956075998954475, 1.4077910999767482, 1.6076156999915838, 1.7116133000236005, 1.911888899980113]",,,,,,,,,,,12,001,A,2023_Feb_22_1643,student_TT_local,2021.1.4,47.65524290414549,
,None,None,None,None,None,None,None,None,None,None,cervix,export,6.5,7.5,video&audio/cobble_TT_3X.mp4,video&audio/sentence2_TT_3X.mp4,cobble,murmur,None,,,,,,,,,,,,,,,,,,,,,,,,,,,,,,,,,,,,,,,,,,,0,12,12,19,,,,,,,,,,,,,,,,,,,,,,,,,,,,,,,,,,,,,,,,,,,,,,,,4444.854981299955,4451.371302400017,None, export,"['e', 'x', 'p', 'o', 'r', 't', 'return']","[0.667476800037548, 0.915767899947241, 1.0360029998701066, 1.21159049984999, 1.3236235999502242, 1.4838763000443578, 1.5635503998491913]",,,,,,,,,,,12,001,A,2023_Feb_22_1643,student_TT_local,2021.1.4,47.65524290414549,
,"While you watch the video, imagine yourself typing the word on the screen, like how you did in the imagery practice. While you watch the video and imagine this, rest your hands on your keyboard but DO NOT type until AFTER you see the typing prompt.

Press 'enter/return' to go to the next page.","While watching the video, imagine yourself typing the word on the screen, like how you did in the imagery practice. While you watch the video and imagine this, rest your hands on your keyboard but DO NOT type until AFTER you see the typing prompt.

Press 'enter/return' to go to the next page.",video&audio/Example_AOMI_imagine.png,1.6,1,butter,6.5,7.5,video&audio/butter_TT_3X.mp4,video&audio/amount_TT_3X.mp4,ascend,eatery,19.5,20.5,video&audio/metric_touch_edited.mp4,video&audio/Sentence2_touch_edited.mp4,metric,plight,2 = AOMIgen,,,,,,,,,,,,,,,,,,,,,,,,,,,,,,,,,,,,,,,,,,,0,13,13,1,,,,,,,,,,,,,,,,,,,,,,,,,,,,,,,,,,,,,,,,,,,,,,,,4453.978507100139,4473.49349449994,None, eatery,"['e', 'a', 't', 'e', 'r', 'u', 'backspace', 'y', 'return']","[0.7951531999278814, 0.9792583999224007, 1.2514341999776661, 1.451292600017041, 1.5232367999851704, 1.7953311998862773, 2.459151699906215, 2.5795740999747068, 2.7236428998876363]",,,,,,,,,,,12,001,A,2023_Feb_22_1643,student_TT_local,2021.1.4,47.65524290414549,
,None,None,None,None,None,None,None,None,None,None,piston,shrill,6.5,7.5,video&audio/caviar_TT_3X.mp4,video&audio/sentence3_TT_3X.mp4,caviar,pursue,None,,,,,,,,,,,,,,,,,,,,,,,,,,,,,,,,,,,,,,,,,,,0,14,14,20,,,,,,,,,,,,,,,,,,,,,,,,,,,,,,,,,,,,,,,,,,,,,,,,4477.247301399941,4483.763651699992,None, shrill,"['s', 'h', 'r', 'i', 'l', 'l', 'return']","[0.8617839999496937, 1.061746999854222, 1.2216119000222534, 1.341675200033933, 1.6296101999469101, 1.7975989999249578, 2.2620196999050677]",,,,,,,,,,,12,001,A,2023_Feb_22_1643,student_TT_local,2021.1.4,47.65524290414549,
,None,None,None,None,None,None,None,None,None,None,plasma,nettle,6.5,7.5,video&audio/jailer_TT_3X.mp4,video&audio/sentence5_TT_3X.mp4,jailer,deduct,None,,,,,,,,,,,,,,,,,,,,,,,,,,,,,,,,,,,,,,,,,,,0,15,15,16,,,,,,,,,,,,,,,,,,,,,,,,,,,,,,,,,,,,,,,,,,,,,,,,4487.059098399943,4493.574371299939,None, nettle,"['n', 'e', 't', 't', 'l', 'e', 'return']","[0.6166272000409663, 0.7132446998730302, 0.9285495998337865, 1.0486254000570625, 1.1528671998530626, 1.2888128999620676, 1.4086535000242293]",,,,,,,,,,,12,001,A,2023_Feb_22_1643,student_TT_local,2021.1.4,47.65524290414549,
,None,None,None,None,None,None,None,None,None,None,parcel,entail,19.5,20.5,video&audio/primal_touch_edited.mp4,video&audio/Sentence5_touch_edited.mp4,primal,novice,None,,,,,,,,,,,,,,,,,,,,,,,,,,,,,,,,,,,,,,,,,,,0,16,16,4,,,,,,,,,,,,,,,,,,,,,,,,,,,,,,,,,,,,,,,,,,,,,,,,4496.015269200085,4515.530154099921,None, entail,"['e', 'n', 't', 'a', 'i', 'l', 'return']","[0.6702382999937981, 0.8142633000388741, 0.9983186000026762, 1.2222537999041378, 1.3022298999130726, 1.5662272998597473, 1.8383019000757486]",,,,,,,,,,,12,001,A,2023_Feb_22_1643,student_TT_local,2021.1.4,47.65524290414549,
,None,None,None,None,None,None,None,None,None,None,confer,tamper,19.5,20.5,video&audio/innate_touch_edited.mp4,video&audio/Sentence1_touch_edited.mp4,innate,critic,None,,,,,,,,,,,,,,,,,,,,,,,,,,,,,,,,,,,,,,,,,,,0,17,17,12,,,,,,,,,,,,,,,,,,,,,,,,,,,,,,,,,,,,,,,,,,,,,,,,4518.408493899973,4537.923570899991,None, tamper,"['t', 'a', 'm', 'p', 'e', 'r', 'return']","[0.6295058999676257, 0.8941190999466926, 0.9740142000373453, 1.2216892000287771, 1.4056001999415457, 1.4698020999785513, 1.7578924999106675]",,,,,,,,,,,12,001,A,2023_Feb_22_1643,student_TT_local,2021.1.4,47.65524290414549,
,None,None,None,None,None,None,None,None,None,None,devise,warble,6.5,7.5,video&audio/mangle_TT_3X.mp4,video&audio/sentence1_TT_3X.mp4,mangle,satire,None,,,,,,,,,,,,,,,,,,,,,,,,,,,,,,,,,,,,,,,,,,,0,18,18,24,,,,,,,,,,,,,,,,,,,,,,,,,,,,,,,,,,,,,,,,,,,,,,,,4540.718370100018,4547.234901699936,None, warble,"['w', 'a', 'r', 'n', 'backspace', 'b', 'l', 'e', 'return']","[0.635491400025785, 0.8996913000009954, 1.1476056000683457, 1.2836401001550257, 1.6996057000942528, 1.8035951000638306, 1.979582600062713, 2.4120752001181245, 2.6355363000184298]",,,,,,,,,,,12,001,A,2023_Feb_22_1643,student_TT_local,2021.1.4,47.65524290414549,
,None,None,None,None,None,None,None,None,None,None,obsess,fusion,19.5,20.5,video&audio/zephyr_touch_edited.mp4,video&audio/Sentence5_touch_edited.mp4,zephyr,sherry,None,,,,,,,,,,,,,,,,,,,,,,,,,,,,,,,,,,,,,,,,,,,0,19,19,10,,,,,,,,,,,,,,,,,,,,,,,,,,,,,,,,,,,,,,,,,,,,,,,,4550.904732000083,4570.420609500026,None, fusion,"['f', 'u', 's', 'i', 'o', 'n', 'return']","[0.7235065998975188, 0.9395657998975366, 1.059643399901688, 1.2037746000569314, 1.7477267999202013, 1.9637203000020236, 2.5477688000537455]",,,,,,,,,,,12,001,A,2023_Feb_22_1643,student_TT_local,2021.1.4,47.65524290414549,
,None,None,None,None,None,None,None,None,None,None,subtle,mucous,6.5,7.5,video&audio/fungal_TT_3X.mp4,video&audio/sentence5_TT_3X.mp4,fungal,brazen,None,,,,,,,,,,,,,,,,,,,,,,,,,,,,,,,,,,,,,,,,,,,0,20,20,22,,,,,,,,,,,,,,,,,,,,,,,,,,,,,,,,,,,,,,,,,,,,,,,,4606.565463500097,4613.081637599971,None, mucous,"['m', 'u', 'c', 'i', 'backspace', 'o', 'u', 's', 'return']","[0.6218522000126541, 0.9177187001332641, 1.2057414001319557, 1.4297948000021279, 2.357742600142956, 2.6777898999862373, 2.9020258001983166, 3.0138130001723766, 3.1896548001095653]",,,,,,,,,,,12,001,A,2023_Feb_22_1643,student_TT_local,2021.1.4,47.65524290414549,
,None,None,None,None,None,None,None,None,None,None,falter,origin,6.5,7.5,video&audio/tandem_TT_3X.mp4,video&audio/sentence4_TT_3X.mp4,tandem,potent,None,,,,,,,,,,,,,,,,,,,,,,,,,,,,,,,,,,,,,,,,,,,0,21,21,15,,,,,,,,,,,,,,,,,,,,,,,,,,,,,,,,,,,,,,,,,,,,,,,,4617.314247000031,4623.830447300104,None, origin,"['o', 'r', 'i', 'g', 'i', 'n', 'return']","[0.7610482000745833, 0.9532350001391023, 1.0250043000560254, 1.2173190000467002, 1.3050786000676453, 1.4812020000535995, 1.7369641000404954]",,,,,,,,,,,12,001,A,2023_Feb_22_1643,student_TT_local,2021.1.4,47.65524290414549,
,"Remember to type as QUICKLY and ACCURATELY as possible after the 'get ready' prompt.

Ask the experimenter any questions now. Please put on the headphones.

You will get one practice trial. Press 'enter/return' when you are ready to start the practice.","Remember to type as QUICKLY and ACCURATELY as you can after the 'get ready' prompt.

Ask the experimenter any questions now. Please put on the headphones.

You will get one practice trial. Press 'enter/return' when you are ready to start the practice.",video&audio/Example_AOMI_total.png,1.8,0.7,None,None,None,None,None,frugal,ghetto,19.5,20.5,video&audio/oppose_touch_edited.mp4,video&audio/Sentence3_touch_edited.mp4,oppose,jargon,None,,,,,,,,,,,,,,,,,,,,,,,,,,,,,,,,,,,,,,,,,,,0,22,22,2,,,,,,,,,,,,,,,,,,,,,,,,,,,,,,,,,,,,,,,,,,,,,,,,4626.605420999927,4646.1196135999635,None, ghetto,"['g', 'h', 'e', 't', 't', 'o', 'return']","[0.9274021999444813, 1.0394743999931961, 1.1673606000840664, 1.407397300004959, 1.5275375000201166, 1.61536470009014, 2.071318299975246]",,,,,,,,,,,12,001,A,2023_Feb_22_1643,student_TT_local,2021.1.4,47.65524290414549,
,None,None,None,None,None,None,None,None,None,None,jackal,shroud,19.5,20.5,video&audio/hamlet_touch_edited.mp4,video&audio/Sentence4_touch_edited.mp4,hamlet,parole,None,,,,,,,,,,,,,,,,,,,,,,,,,,,,,,,,,,,,,,,,,,,0,23,23,9,,,,,,,,,,,,,,,,,,,,,,,,,,,,,,,,,,,,,,,,,,,,,,,,4649.226811300032,4668.74199489993,None, shroud,"['s', 'h', 'r', 'o', 'u', 'd', 'return']","[1.1873012001160532, 1.4115263000130653, 1.5474051001947373, 1.8112721000798047, 2.1154466001316905, 2.2433762000873685, 2.451431800145656]",,,,,,,,,,,12,001,A,2023_Feb_22_1643,student_TT_local,2021.1.4,47.65524290414549,
,None,None,None,None,None,None,None,None,None,None,forage,allure,6.5,7.5,video&audio/campus_TT_3X.mp4,video&audio/sentence6_TT_3X.mp4,campus,legion,None,,,,,,,,,,,,,,,,,,,,,,,,,,,,,,,,,,,,,,,,,,,0,24,24,29,,,,,,,,,,,,,,,,,,,,,,,,,,,,,,,,,,,,,,,,,,,,,,,,4672.223568600137,4678.741661400069,None, allure,"['a', 'l', 'l', 'u', 'r', 'e', 'return']","[0.6605080999433994, 0.9164269000757486, 1.0927041999530047, 1.332361799897626, 1.460390199907124, 1.6686819999013096, 2.0128303999081254]",,,,,,,,,,,12,001,A,2023_Feb_22_1643,student_TT_local,2021.1.4,47.65524290414549,
,"This is Section 2.

In this section, your task will be the same as before - that is, to type the word you see on the screen after the typing prompt. However, rather than just seeing the word before typing, you will also see a video of someone typing the same word you will need to type at various speeds. 

Press 'enter/return' to go to the next page.","This is Section 4. 

In this section, your task will be the same as before - that is, to type the word you see on the screen after the typing prompt. You will see a video again, like in Section 2, only this time, the video will show someone typing different words to what you must type at various speeds. 

Press 'enter/return' to go to the next page.",video&audio/Example_AOMI_layout.png,1.6,0.6,afford,19.5,20.5,video&audio/afford_touch_edited.mp4,video&audio/amount_touch_edited.mp4,matrix,breach,19.5,20.5,video&audio/hinder_touch_edited.mp4,video&audio/Sentence1_touch_edited.mp4,hinder,vanity,1 = AOMIspec,,,,,,,,,,,,,,,,,,,,,,,,,,,,,,,,,,,,,,,,,,,0,25,25,0,,,,,,,,,,,,,,,,,,,,,,,,,,,,,,,,,,,,,,,,,,,,,,,,4681.7850069999695,4701.300800499972,None, breach,"['b', 'r', 'e', 'a', 'd', 'c', 'h', 'backspace', 'backspace', 'c', 'h', 'return']","[0.8019830998964608, 0.94626190001145, 1.145815100055188, 1.3297898999881, 1.6260285000316799, 1.634168399963528, 1.665998199954629, 2.2182322000153363, 2.362266199896112, 2.521871800068766, 2.722055899910629, 3.1142982998862863]",,,,,,,,,,,12,001,A,2023_Feb_22_1643,student_TT_local,2021.1.4,47.65524290414549,
,None,None,None,None,None,None,None,None,None,None,subdue,matron,6.5,7.5,video&audio/feudal_TT_3X.mp4,video&audio/sentence3_TT_3X.mp4,feudal,impose,None,,,,,,,,,,,,,,,,,,,,,,,,,,,,,,,,,,,,,,,,,,,0,26,26,26,,,,,,,,,,,,,,,,,,,,,,,,,,,,,,,,,,,,,,,,,,,,,,,,4705.450086199911,4711.966396700125,None, matron,"['m', 'a', 't', 'r', 'o', 'n', 'return']","[0.6343837999738753, 0.7624389000702649, 1.026627500075847, 1.194807599997148, 1.4425876999739558, 1.6185810000170022, 1.9148395999800414]",,,,,,,,,,,12,001,A,2023_Feb_22_1643,student_TT_local,2021.1.4,47.65524290414549,
,None,None,None,None,None,None,None,None,None,None,neural,ordain,19.5,20.5,video&audio/septic_touch_edited.mp4,video&audio/Sentence2_touch_edited.mp4,septic,quarry,None,,,,,,,,,,,,,,,,,,,,,,,,,,,,,,,,,,,,,,,,,,,0,27,27,13,,,,,,,,,,,,,,,,,,,,,,,,,,,,,,,,,,,,,,,,,,,,,,,,4714.9075372000225,4734.421863100026,None, ordain,"['o', 'r', 'd', 'a', 'i', 'n', 'return']","[0.7954112999141216, 0.9556239999365062, 1.2112737998832017, 1.4040834999177605, 1.507396699860692, 1.6511580999940634, 1.9954879998695105]",,,,,,,,,,,12,001,A,2023_Feb_22_1643,student_TT_local,2021.1.4,47.65524290414549,
,None,None,None,None,None,None,None,None,None,None,tariff,galley,19.5,20.5,video&audio/delude_touch_edited.mp4,video&audio/Sentence2_touch_edited.mp4,delude,strife,None,,,,,,,,,,,,,,,,,,,,,,,,,,,,,,,,,,,,,,,,,,,0,28,28,7,,,,,,,,,,,,,,,,,,,,,,,,,,,,,,,,,,,,,,,,,,,,,,,,4737.445315900026,4756.960925800027,None, galley,"['g', 'a', 'l', 'l', 'e', 'y', 'return']","[0.695579000050202, 0.927739700069651, 1.0716224999632686, 1.391825000056997, 1.6238496000878513, 1.7756387998815626, 2.1197267998941243]",,,,,,,,,,,12,001,A,2023_Feb_22_1643,student_TT_local,2021.1.4,47.65524290414549,
,None,None,None,None,None,None,None,None,None,None,pulpit,mystic,19.5,20.5,video&audio/oblige_touch_edited.mp4,video&audio/Sentence4_touch_edited.mp4,oblige,infirm,None,,,,,,,,,,,,,,,,,,,,,,,,,,,,,,,,,,,,,,,,,,,0,29,29,3,,,,,,,,,,,,,,,,,,,,,,,,,,,,,,,,,,,,,,,,,,,,,,,,4760.110009799944,4779.6251044000965,None, mystic,"['m', 'y', 's', 't', 'i', 'c', 'return']","[0.8627817998640239, 0.9674246998038143, 1.215204499894753, 1.4791778000071645, 1.6067515998147428, 1.7107686998788267, 1.9509141999296844]",,,,,,,,,,,12,001,A,2023_Feb_22_1643,student_TT_local,2021.1.4,47.65524290414549,
,,,,,,,,,,,,,,,,,,,,typingRatingScale.png,"How would you rate your typing performance in the previous section?

Press a number on your keyboard according to the rating scale below to give your answer. Your first answer will be accepted.",,,,,,,,,,,,,,,,,,,,,,,,,,,,,,,,,,,,,,,,,,,,,0,0,0,0,,,,,,,,,,,,,,,,,,,,,,,,,,,,,,,,,,,,,,,,,,,,,,,,,,['3'],[4.781253900146112],,,,,,,,,12,001,A,2023_Feb_22_1643,student_TT_local,2021.1.4,47.65524290414549,
,,,,,,,,,,,,,,,,,,,,imageryCheckScale.png,"In the previous section did you imagine yourself typing?

Press a number on your keyboard according to the rating scale below to give your answer. Your first answer will be accepted.",,,,,,,,,,,,,,,,,,,,,,,,,,,,,,,,,,,,,,,,,,,,,0,1,1,1,,,,,,,,,,,,,,,,,,,,,,,,,,,,,,,,,,,,,,,,,,,,,,,,,,['1'],[4.1535396000836045],,,,,,,,,12,001,A,2023_Feb_22_1643,student_TT_local,2021.1.4,47.65524290414549,
,None,None,None,None,None,None,None,None,None,None,jackal,shroud,19.5,20.5,video&audio/hamlet_touch_edited.mp4,video&audio/Sentence4_touch_edited.mp4,hamlet,parole,None,,,,,,,,,,,,,,,,,,,,,,,,,,,,,,,,,,,,,,,,,,,,,,,,,,,,,,,,,,,0,0,0,9,,,,,,,,,,,,,,,,None,"['b', 'u', 't', 't', 'e', 'r', 'return']","[0.6832607998512685, 0.8913235999643803, 1.0274636999238282, 1.1872580000199378, 1.355465600034222, 1.451238399837166, 1.6271593000274152]",,,,,,,,,,,,,,,,,,,,,,None,None, parole,"['p', 'a', 'r', 'l', 'e', 'return']","[0.6200836999341846, 0.7959919997956604, 1.0360979998949915, 1.3800682998262346, 1.532250399934128, 1.708143999800086]",,,,12,001,A,2023_Feb_22_1643,student_TT_local,2021.1.4,47.65524290414549,
,None,None,None,None,None,None,None,None,None,None,falter,origin,6.5,7.5,video&audio/tandem_TT_3X.mp4,video&audio/sentence4_TT_3X.mp4,tandem,potent,None,,,,,,,,,,,,,,,,,,,,,,,,,,,,,,,,,,,,,,,,,,,,,,,,,,,,,,,,,,,0,1,1,15,,,,,,,,,,,,,,,,None,,,,,,,,,,,,,,,,,,,,,,,,,None, potent,"['p', 'o', 't', 'e', 'n', 't', 'return']","[0.6590706999413669, 0.8757855999283493, 1.3071383000351489, 1.482884099939838, 1.8671220999676734, 1.955231700092554, 2.2273186000529677]",,,,12,001,A,2023_Feb_22_1643,student_TT_local,2021.1.4,47.65524290414549,
,None,None,None,None,None,None,None,None,None,None,pulpit,mystic,19.5,20.5,video&audio/oblige_touch_edited.mp4,video&audio/Sentence4_touch_edited.mp4,oblige,infirm,None,,,,,,,,,,,,,,,,,,,,,,,,,,,,,,,,,,,,,,,,,,,,,,,,,,,,,,,,,,,0,2,2,3,,,,,,,,,,,,,,,,None,,,,,,,,,,,,,,,,,,,,,,,,,None, infirm,"['i', 'n', 'f', 'r', 'i', 'm', 'backspace', 'backspace', 'backspace', 'i', 'r', 'm', 'return']","[0.6743653998710215, 0.9380806998815387, 1.0421831000130624, 1.2182151998858899, 1.3305565000046045, 1.5306084998883307, 2.0424295000266284, 2.2104257999453694, 2.330606499919668, 2.834210699889809, 2.9383034000638872, 3.050301200011745, 3.562288200017065]",,,,12,001,A,2023_Feb_22_1643,student_TT_local,2021.1.4,47.65524290414549,
,None,None,None,None,None,None,None,None,None,None,cervix,export,6.5,7.5,video&audio/cobble_TT_3X.mp4,video&audio/sentence2_TT_3X.mp4,cobble,murmur,None,,,,,,,,,,,,,,,,,,,,,,,,,,,,,,,,,,,,,,,,,,,,,,,,,,,,,,,,,,,0,3,3,19,,,,,,,,,,,,,,,,None,,,,,,,,,,,,,,,,,,,,,,,,,None, murmur,"['m', 'u', 'r', 'm', 'u', 'r', 'return']","[0.6895869001746178, 0.9055114001967013, 1.081935300026089, 1.233334000222385, 1.4575202001724392, 1.6256309000309557, 1.7533674000296742]",,,,12,001,A,2023_Feb_22_1643,student_TT_local,2021.1.4,47.65524290414549,
,None,None,None,None,None,None,None,None,None,None,tariff,galley,19.5,20.5,video&audio/delude_touch_edited.mp4,video&audio/Sentence2_touch_edited.mp4,delude,strife,None,,,,,,,,,,,,,,,,,,,,,,,,,,,,,,,,,,,,,,,,,,,,,,,,,,,,,,,,,,,0,4,4,7,,,,,,,,,,,,,,,,None,,,,,,,,,,,,,,,,,,,,,,,,,None, strife,"['s', 'r', 'backspace', 't', 'r', 'i', 'e', 'backspace', 'f', 'e', 'return']","[0.6275573000311852, 0.8597275998909026, 1.27559749991633, 1.3958976999856532, 1.5800514998845756, 1.7077771998010576, 1.9156257000286132, 2.3476762999780476, 2.436031899880618, 2.835546299815178, 2.939590699970722]",,,,12,001,A,2023_Feb_22_1643,student_TT_local,2021.1.4,47.65524290414549,
,None,None,None,None,None,None,None,None,None,None,picket,gullet,6.5,7.5,video&audio/parish_TT_3X.mp4,video&audio/sentence5_TT_3X.mp4,parish,upkeep,None,,,,,,,,,,,,,,,,,,,,,,,,,,,,,,,,,,,,,,,,,,,,,,,,,,,,,,,,,,,0,5,5,28,,,,,,,,,,,,,,,,None,,,,,,,,,,,,,,,,,,,,,,,,,None, upkeep,"['u', 'p', 'k', 'e', 'e', 'p', 'return']","[0.7881959001533687, 1.2042658000718802, 1.4521604001056403, 1.5964744000229985, 1.7561188000254333, 2.0761715001426637, 2.388401900185272]",,,,12,001,A,2023_Feb_22_1643,student_TT_local,2021.1.4,47.65524290414549,
,None,None,None,None,None,None,None,None,None,None,subtle,mucous,6.5,7.5,video&audio/fungal_TT_3X.mp4,video&audio/sentence5_TT_3X.mp4,fungal,brazen,None,,,,,,,,,,,,,,,,,,,,,,,,,,,,,,,,,,,,,,,,,,,,,,,,,,,,,,,,,,,0,6,6,22,,,,,,,,,,,,,,,,None,,,,,,,,,,,,,,,,,,,,,,,,,None, brazen,"['b', 'r', 'a', 'z', 'n', 'e', 'backspace', 'backspace', 'e', 'return']","[0.5756341000087559, 0.7034928998909891, 1.1912817999254912, 1.4155560999643058, 1.583392299944535, 1.6875534998252988, 2.1115055999252945, 2.287434599827975, 2.4553219999652356, 3.0717120999470353]",,,,12,001,A,2023_Feb_22_1643,student_TT_local,2021.1.4,47.65524290414549,
,None,None,None,None,None,None,None,None,None,None,subdue,matron,6.5,7.5,video&audio/feudal_TT_3X.mp4,video&audio/sentence3_TT_3X.mp4,feudal,impose,None,,,,,,,,,,,,,,,,,,,,,,,,,,,,,,,,,,,,,,,,,,,,,,,,,,,,,,,,,,,0,7,7,26,,,,,,,,,,,,,,,,None,,,,,,,,,,,,,,,,,,,,,,,,,['delete'], impose,"['i', 'm', 'p', 'o', 'e', 'backspace', 's', 'e', 'return']","[0.7162286001257598, 1.0441560000181198, 1.2605038001202047, 1.4684258999768645, 1.8043544001411647, 2.116148700006306, 2.196279500145465, 2.420261099934578, 2.5322754001244903]",[0.1492318999953568],,,12,001,A,2023_Feb_22_1643,student_TT_local,2021.1.4,47.65524290414549,
,None,None,None,None,None,None,None,None,None,None,cortex,mussel,6.5,7.5,video&audio/induce_TT_3X.mp4,video&audio/sentence4_TT_3X.mp4,induce,savant,None,,,,,,,,,,,,,,,,,,,,,,,,,,,,,,,,,,,,,,,,,,,,,,,,,,,,,,,,,,,0,8,8,21,,,,,,,,,,,,,,,,None,,,,,,,,,,,,,,,,,,,,,,,,,None, savant,"['s', 'a', 'v', 'a', 'n', 't', 'return']","[0.6112064998596907, 0.7951445998623967, 1.1474564999807626, 1.3472904998343438, 1.4678776999935508, 1.61926249996759, 1.7553391999099404]",,,,12,001,A,2023_Feb_22_1643,student_TT_local,2021.1.4,47.65524290414549,
,"Remember to type as QUICKLY and ACCURATELY as possible after the 'get ready' prompt.

Ask the experimenter any questions now. Please put on the headphones.

You will get one practice trial. Press 'enter/return' when you are ready to start the practice.","Remember to type as QUICKLY and ACCURATELY as you can after the 'get ready' prompt.

Ask the experimenter any questions now. Please put on the headphones.

You will get one practice trial. Press 'enter/return' when you are ready to start the practice.",video&audio/Example_AOMI_total.png,1.8,0.7,None,None,None,None,None,frugal,ghetto,19.5,20.5,video&audio/oppose_touch_edited.mp4,video&audio/Sentence3_touch_edited.mp4,oppose,jargon,None,,,,,,,,,,,,,,,,,,,,,,,,,,,,,,,,,,,,,,,,,,,,,,,,,,,,,,,,,,,0,9,9,2,,,,,,,,,,,,,,,,None,,,,,,,,,,,,,,,,,,,,,,,,,None, jargon,"['j', 'a', 'r', 'g', 'o', 'n', 'return']","[0.8562918999232352, 0.9923135000281036, 1.2640849000308663, 1.4877375001087785, 1.5917797998990864, 1.7521987999789417, 2.1519987999927253]",,,,12,001,A,2023_Feb_22_1643,student_TT_local,2021.1.4,47.65524290414549,
,None,None,None,None,None,None,None,None,None,None,piston,shrill,6.5,7.5,video&audio/caviar_TT_3X.mp4,video&audio/sentence3_TT_3X.mp4,caviar,pursue,None,,,,,,,,,,,,,,,,,,,,,,,,,,,,,,,,,,,,,,,,,,,,,,,,,,,,,,,,,,,0,10,10,20,,,,,,,,,,,,,,,,None,,,,,,,,,,,,,,,,,,,,,,,,,None, pursue,"['p', 'i', 'backspace', 'u', 'r', 's', 'u', 'e', 'return']","[0.678023099899292, 0.9739153999835253, 1.3257933999411762, 1.8624734999611974, 2.8219117999542505, 3.0058563998900354, 3.2459603999741375, 3.3659155999775976, 3.518200800055638]",,,,12,001,A,2023_Feb_22_1643,student_TT_local,2021.1.4,47.65524290414549,
,"While you watch the video, imagine yourself typing the word on the screen, like how you did in the imagery practice. While you watch the video and imagine this, rest your hands on your keyboard but DO NOT type until AFTER you see the typing prompt.

Press 'enter/return' to go to the next page.","While watching the video, imagine yourself typing the word on the screen, like how you did in the imagery practice. While you watch the video and imagine this, rest your hands on your keyboard but DO NOT type until AFTER you see the typing prompt.

Press 'enter/return' to go to the next page.",video&audio/Example_AOMI_imagine.png,1.6,1,butter,6.5,7.5,video&audio/butter_TT_3X.mp4,video&audio/amount_TT_3X.mp4,ascend,eatery,19.5,20.5,video&audio/metric_touch_edited.mp4,video&audio/Sentence2_touch_edited.mp4,metric,plight,2 = AOMIgen,,,,,,,,,,,,,,,,,,,,,,,,,,,,,,,,,,,,,,,,,,,,,,,,,,,,,,,,,,,0,11,11,1,,,,,,,,,,,,,,,,None,,,,,,,,,,,,,,,,,,,,,,,,,None, plight,"['p', 'l', 'i', 'g', 'h', 't', 'return']","[0.8062575999647379, 1.022222900064662, 1.2382692000828683, 1.566241899970919, 1.7341553000733256, 1.9183982000686228, 2.0702402000315487]",,,,12,001,A,2023_Feb_22_1643,student_TT_local,2021.1.4,47.65524290414549,
,None,None,None,None,None,None,None,None,None,None,virile,apathy,19.5,20.5,video&audio/joiner_touch_edited.mp4,video&audio/Sentence6_touch_edited.mp4,joiner,revolt,None,,,,,,,,,,,,,,,,,,,,,,,,,,,,,,,,,,,,,,,,,,,,,,,,,,,,,,,,,,,0,12,12,5,,,,,,,,,,,,,,,,None,,,,,,,,,,,,,,,,,,,,,,,,,None, revolt,"['r', 'e', 'v', 'o', 'l', 't', 'return']","[0.6467583000194281, 0.8627866001334041, 1.0948556000366807, 1.207013500155881, 1.3828305001370609, 1.4549225000664592, 1.6313080000691116]",,,,12,001,A,2023_Feb_22_1643,student_TT_local,2021.1.4,47.65524290414549,
,None,None,None,None,None,None,None,None,None,None,malady,revoke,19.5,20.5,video&audio/shrewd_touch_edited.mp4,video&audio/Sentence1_touch_edited.mp4,shrewd,mirage,None,,,,,,,,,,,,,,,,,,,,,,,,,,,,,,,,,,,,,,,,,,,,,,,,,,,,,,,,,,,0,13,13,6,,,,,,,,,,,,,,,,None,,,,,,,,,,,,,,,,,,,,,,,,,None, mirage,"['m', 'i', 'r', 'a', 'g', 'e', 'return']","[0.8148928000591695, 1.038779600057751, 1.1828286000527442, 1.3668108999263495, 1.6230015000328422, 1.774827699875459, 1.918783500092104]",,,,12,001,A,2023_Feb_22_1643,student_TT_local,2021.1.4,47.65524290414549,
,None,None,None,None,None,None,None,None,None,None,debtor,uphold,6.5,7.5,video&audio/output_TT_3X.mp4,video&audio/sentence1_TT_3X.mp4,output,convoy,None,,,,,,,,,,,,,,,,,,,,,,,,,,,,,,,,,,,,,,,,,,,,,,,,,,,,,,,,,,,0,14,14,18,,,,,,,,,,,,,,,,None,,,,,,,,,,,,,,,,,,,,,,,,,None, convoy,"['c', 'o', 'n', 'v', 'o', 'y', 'return']","[0.5493678001221269, 0.7254548999480903, 0.925289100036025, 1.3651360000949353, 1.4534495000261813, 1.6211202000267804, 1.7974611001554877]",,,,12,001,A,2023_Feb_22_1643,student_TT_local,2021.1.4,47.65524290414549,
,None,None,None,None,None,None,None,None,None,None,confer,tamper,19.5,20.5,video&audio/innate_touch_edited.mp4,video&audio/Sentence1_touch_edited.mp4,innate,critic,None,,,,,,,,,,,,,,,,,,,,,,,,,,,,,,,,,,,,,,,,,,,,,,,,,,,,,,,,,,,0,15,15,12,,,,,,,,,,,,,,,,None,,,,,,,,,,,,,,,,,,,,,,,,,None, critic,"['c', 'r', 'i', 't', 'i', 'c', 'return']","[0.6372050999198109, 0.9008128000423312, 1.1328765000216663, 1.2527938999701291, 1.3415322999935597, 1.4689225000329316, 1.6288117999210954]",,,,12,001,A,2023_Feb_22_1643,student_TT_local,2021.1.4,47.65524290414549,
,None,None,None,None,None,None,None,None,None,None,botany,ethnic,6.5,7.5,video&audio/trench_TT_3X.mp4,video&audio/sentence4_TT_3X.mp4,trench,fodder,None,,,,,,,,,,,,,,,,,,,,,,,,,,,,,,,,,,,,,,,,,,,,,,,,,,,,,,,,,,,0,16,16,27,,,,,,,,,,,,,,,,None,,,,,,,,,,,,,,,,,,,,,,,,,None, fodder,"['f', 'o', 'd', 'd', 'e', 'r', 'return']","[0.8718480998650193, 1.0395998999010772, 1.231506299925968, 1.3596367000136524, 1.5675388998351991, 1.735613799886778, 1.8474887998308986]",,,,12,001,A,2023_Feb_22_1643,student_TT_local,2021.1.4,47.65524290414549,
,None,None,None,None,None,None,None,None,None,None,parcel,entail,19.5,20.5,video&audio/primal_touch_edited.mp4,video&audio/Sentence5_touch_edited.mp4,primal,novice,None,,,,,,,,,,,,,,,,,,,,,,,,,,,,,,,,,,,,,,,,,,,,,,,,,,,,,,,,,,,0,17,17,4,,,,,,,,,,,,,,,,None,,,,,,,,,,,,,,,,,,,,,,,,,None, novice,"['n', 'o', 'v', 'i', 'c', 'e', 'return']","[0.7227187000680715, 0.9227607001084834, 1.146885900059715, 1.2105855999980122, 1.403173299971968, 1.6347064001020044, 1.7547412000130862]",,,,12,001,A,2023_Feb_22_1643,student_TT_local,2021.1.4,47.65524290414549,
,None,None,None,None,None,None,None,None,None,None,plasma,nettle,6.5,7.5,video&audio/jailer_TT_3X.mp4,video&audio/sentence5_TT_3X.mp4,jailer,deduct,None,,,,,,,,,,,,,,,,,,,,,,,,,,,,,,,,,,,,,,,,,,,,,,,,,,,,,,,,,,,0,18,18,16,,,,,,,,,,,,,,,,None,,,,,,,,,,,,,,,,,,,,,,,,,None, deduct,"['d', 'e', 'd', 'u', 'c', 't', 'y', 'return']","[0.8162645001430064, 0.9765135000925511, 1.2322629999835044, 1.5763022999744862, 1.6722310001496226, 1.9449523000512272, 1.952362900134176, 2.064236900070682]",,,,12,001,A,2023_Feb_22_1643,student_TT_local,2021.1.4,47.65524290414549,
,None,None,None,None,None,None,None,None,None,None,obsess,fusion,19.5,20.5,video&audio/zephyr_touch_edited.mp4,video&audio/Sentence5_touch_edited.mp4,zephyr,sherry,None,,,,,,,,,,,,,,,,,,,,,,,,,,,,,,,,,,,,,,,,,,,,,,,,,,,,,,,,,,,0,19,19,10,,,,,,,,,,,,,,,,None,,,,,,,,,,,,,,,,,,,,,,,,,None, sherry,"['s', 'h', 'e', 'e', 'backspace', 'r', 'r', 'y', 'return']","[0.6363895998802036, 0.8841796999331564, 1.0841345998924226, 1.2601463000755757, 1.660159599967301, 1.8045701999217272, 1.9161209999583662, 2.2041867000516504, 2.4201626998838037]",,,,12,001,A,2023_Feb_22_1643,student_TT_local,2021.1.4,47.65524290414549,
,None,None,None,None,None,None,None,None,None,None,devise,warble,6.5,7.5,video&audio/mangle_TT_3X.mp4,video&audio/sentence1_TT_3X.mp4,mangle,satire,None,,,,,,,,,,,,,,,,,,,,,,,,,,,,,,,,,,,,,,,,,,,,,,,,,,,,,,,,,,,0,20,20,24,,,,,,,,,,,,,,,,None,,,,,,,,,,,,,,,,,,,,,,,,,None, satire,"['s', 'a', 't', 'i', 'r', 'e', 'return']","[0.6144713000394404, 0.7902955999597907, 1.0625008998904377, 1.2543673999607563, 1.342495599994436, 1.486801299965009, 1.6465902999043465]",,,,12,001,A,2023_Feb_22_1643,student_TT_local,2021.1.4,47.65524290414549,
,None,None,None,None,None,None,None,None,None,None,ritual,portal,6.5,7.5,video&audio/clergy_TT_3X.mp4,video&audio/sentence6_TT_3X.mp4,clergy,coerce,None,,,,,,,,,,,,,,,,,,,,,,,,,,,,,,,,,,,,,,,,,,,,,,,,,,,,,,,,,,,0,21,21,17,,,,,,,,,,,,,,,,None,,,,,,,,,,,,,,,,,,,,,,,,,None, coerce,"['c', 'o', 'e', 'r', 'c', 'e', 'return']","[0.7460660000797361, 0.9220114999916404, 1.1379434000700712, 1.3459393000230193, 1.5383264000993222, 1.753937300061807, 1.8740362001117319]",,,,12,001,A,2023_Feb_22_1643,student_TT_local,2021.1.4,47.65524290414549,
,None,None,None,None,None,None,None,None,None,None,kipper,divert,6.5,7.5,video&audio/meddle_TT_3X.mp4,video&audio/sentence2_TT_3X.mp4,meddle,musket,None,,,,,,,,,,,,,,,,,,,,,,,,,,,,,,,,,,,,,,,,,,,,,,,,,,,,,,,,,,,0,22,22,25,,,,,,,,,,,,,,,,None,,,,,,,,,,,,,,,,,,,,,,,,,None, musket,"['m', 'u', 's', 'k', 'e', 't', 'return']","[0.5770080999936908, 0.8569127998780459, 1.257194999838248, 1.4253670000471175, 1.7291836999356747, 1.9132266000378877, 2.0571417999453843]",,,,12,001,A,2023_Feb_22_1643,student_TT_local,2021.1.4,47.65524290414549,
,None,None,None,None,None,None,None,None,None,None,solemn,ration,19.5,20.5,video&audio/befall_touch_edited.mp4,video&audio/Sentence3_touch_edited.mp4,befall,goblet,None,,,,,,,,,,,,,,,,,,,,,,,,,,,,,,,,,,,,,,,,,,,,,,,,,,,,,,,,,,,0,23,23,8,,,,,,,,,,,,,,,,None,,,,,,,,,,,,,,,,,,,,,,,,,None, goblet,"['g', 'o', 'b', 'l', 'e', 't', 'return']","[0.6554034999571741, 0.7994632001500577, 1.3275383000727743, 1.6714298999868333, 1.7436008001677692, 1.95938970008865, 2.111746900016442]",,,,12,001,A,2023_Feb_22_1643,student_TT_local,2021.1.4,47.65524290414549,
,None,None,None,None,None,None,None,None,None,None,covert,defame,19.5,20.5,video&audio/patent_touch_edited.mp4,video&audio/Sentence6_touch_edited.mp4,patent,binder,None,,,,,,,,,,,,,,,,,,,,,,,,,,,,,,,,,,,,,,,,,,,,,,,,,,,,,,,,,,,0,24,24,11,,,,,,,,,,,,,,,,None,,,,,,,,,,,,,,,,,,,,,,,,,None, binder,"['b', 'i', 'n', 'd', 'e', 'r', 'return']","[0.7827788998838514, 0.9027807000093162, 1.0785139000508934, 1.2225552999880165, 1.4143417000304908, 1.558815099997446, 1.654593599960208]",,,,12,001,A,2023_Feb_22_1643,student_TT_local,2021.1.4,47.65524290414549,
,"This is Section 2.

In this section, your task will be the same as before - that is, to type the word you see on the screen after the typing prompt. However, rather than just seeing the word before typing, you will also see a video of someone typing the same word you will need to type at various speeds. 

Press 'enter/return' to go to the next page.","This is Section 4. 

In this section, your task will be the same as before - that is, to type the word you see on the screen after the typing prompt. You will see a video again, like in Section 2, only this time, the video will show someone typing different words to what you must type at various speeds. 

Press 'enter/return' to go to the next page.",video&audio/Example_AOMI_layout.png,1.6,0.6,afford,19.5,20.5,video&audio/afford_touch_edited.mp4,video&audio/amount_touch_edited.mp4,matrix,breach,19.5,20.5,video&audio/hinder_touch_edited.mp4,video&audio/Sentence1_touch_edited.mp4,hinder,vanity,1 = AOMIspec,,,,,,,,,,,,,,,,,,,,,,,,,,,,,,,,,,,,,,,,,,,,,,,,,,,,,,,,,,,0,25,25,0,,,,,,,,,,,,,,,,None,,,,,,,,,,,,,,,,,,,,,,,,,None, vanity,"['v', 'a', 'n', 'i', 't', 'y', 'return']","[0.7652910000178963, 0.9812109998892993, 1.1652461998164654, 1.3892699999269098, 2.061569399898872, 2.1971921999938786, 2.4931967000011355]",,,,12,001,A,2023_Feb_22_1643,student_TT_local,2021.1.4,47.65524290414549,
,None,None,None,None,None,None,None,None,None,None,neural,ordain,19.5,20.5,video&audio/septic_touch_edited.mp4,video&audio/Sentence2_touch_edited.mp4,septic,quarry,None,,,,,,,,,,,,,,,,,,,,,,,,,,,,,,,,,,,,,,,,,,,,,,,,,,,,,,,,,,,0,26,26,13,,,,,,,,,,,,,,,,None,,,,,,,,,,,,,,,,,,,,,,,,,None, quarry,"['q', 'u', 'a', 'r', 'r', 'y', 'return']","[0.7345622999127954, 0.9740695999935269, 1.1106157000176609, 1.3978078998625278, 1.5101931998506188, 1.7019602998625487, 1.7979132998734713]",,,,12,001,A,2023_Feb_22_1643,student_TT_local,2021.1.4,47.65524290414549,
,None,None,None,None,None,None,None,None,None,None,belfry,linear,6.5,7.5,video&audio/girdle_TT_3X.mp4,video&audio/sentence6_TT_3X.mp4,girdle,manure,None,,,,,,,,,,,,,,,,,,,,,,,,,,,,,,,,,,,,,,,,,,,,,,,,,,,,,,,,,,,0,27,27,23,,,,,,,,,,,,,,,,None,,,,,,,,,,,,,,,,,,,,,,,,,None, manure,"['m', 'a', 'n', 'u', 'r', 'e', 'return']","[0.761638900032267, 1.4095638000871986, 1.7294280000496656, 2.1375875000376254, 2.305458900053054, 2.489621400134638, 2.6018819001037627]",,,,12,001,A,2023_Feb_22_1643,student_TT_local,2021.1.4,47.65524290414549,
,None,None,None,None,None,None,None,None,None,None,forage,allure,6.5,7.5,video&audio/campus_TT_3X.mp4,video&audio/sentence6_TT_3X.mp4,campus,legion,None,,,,,,,,,,,,,,,,,,,,,,,,,,,,,,,,,,,,,,,,,,,,,,,,,,,,,,,,,,,0,28,28,29,,,,,,,,,,,,,,,,None,,,,,,,,,,,,,,,,,,,,,,,,,None, legion,"['l', 'e', 'g', 'i', 'o', 'n', 'return']","[0.6040892000310123, 0.7562373999971896, 0.9481144999153912, 1.1081914999522269, 1.1965898999478668, 1.3802401998545974, 1.6523398000281304]",,,,12,001,A,2023_Feb_22_1643,student_TT_local,2021.1.4,47.65524290414549,
,None,None,None,None,None,None,None,None,None,None,hippie,herbal,19.5,20.5,video&audio/hearth_touch_edited.mp4,video&audio/Sentence3_touch_edited.mp4,hearth,sonnet,None,,,,,,,,,,,,,,,,,,,,,,,,,,,,,,,,,,,,,,,,,,,,,,,,,,,,,,,,,,,0,29,29,14,,,,,,,,,,,,,,,,None,,,,,,,,,,,,,,,,,,,,,,,,,None, sonnet,"['s', 'o', 'n', 'n', 'e', 't', 'return']","[0.6625699000433087, 0.7986207001376897, 1.0385759000200778, 1.2223527000751346, 1.2865667000878602, 1.5188118000514805, 1.655094499932602]",,,,12,001,A,2023_Feb_22_1643,student_TT_local,2021.1.4,47.65524290414549,
,,,,,,,,,,,,,,,,,,,,typingRatingScale.png,"How would you rate your typing performance in the previous section?

Press a number on your keyboard according to the rating scale below to give your answer. Your first answer will be accepted.",,,,,,,,,,,,,,,,,,,,,,,,,,,,,,,,,,,,,,,,,,,,,,,,,,,,,,,,,,,,,0,0,0,0,,,,,,,,,,,,,,,,,,,,,,,,,,,,,,,,,,,,,,,,,,['4'],[3.942240099888295],12,001,A,2023_Feb_22_1643,student_TT_local,2021.1.4,47.65524290414549,
,,,,,,,,,,,,,,,,,,,,visualImageryScale.png,"While imagining yourself typing, how clear was your visual image?

Press a number on your keyboard according to the rating scale below to give your answer. Your first answer will be accepted.",,,,,,,,,,,,,,,,,,,,,,,,,,,,,,,,,,,,,,,,,,,,,,,,,,,,,,,,,,,,,0,1,1,1,,,,,,,,,,,,,,,,,,,,,,,,,,,,,,,,,,,,,,,,,,['4'],[4.556180499959737],12,001,A,2023_Feb_22_1643,student_TT_local,2021.1.4,47.65524290414549,
,,,,,,,,,,,,,,,,,,,,kinestheticImageryScale.png,"While imagining yourself typing, how intense were the sensations associated with the imagined movement?

Press a number on your keyboard according to the rating scale below to give your answer. Your first answer will be accepted.",,,,,,,,,,,,,,,,,,,,,,,,,,,,,,,,,,,,,,,,,,,,,,,,,,,,,,,,,,,,,0,2,2,2,,,,,,,,,,,,,,,,,,,,,,,,,,,,,,,,,,,,,,,,,,['3'],[6.342521700076759],12,001,A,2023_Feb_22_1643,student_TT_local,2021.1.4,47.65524290414549,
