pracWords,instr_1,instr_2,AOMI_Ima,AOMI_w,AOMI_h,practiceWords,prac_time,prac_bkgd_time,pracVid_1,pracVid_2,baseline_words,control_words,cont_time,cont_bgkd_time,first_vids,second_vids,AOMIfirst_words,AOMIsecond_words,Order,ratingScale,rateInstr,instructLoop.thisRepN,instructLoop.thisTrialN,instructLoop.thisN,instructLoop.thisIndex,practice_control.thisRepN,practice_control.thisTrialN,practice_control.thisN,practice_control.thisIndex,trials_1.thisRepN,trials_1.thisTrialN,trials_1.thisN,trials_1.thisIndex,baseRateLoop.thisRepN,baseRateLoop.thisTrialN,baseRateLoop.thisN,baseRateLoop.thisIndex,AOMIinstrLoop1.thisRepN,AOMIinstrLoop1.thisTrialN,AOMIinstrLoop1.thisN,AOMIinstrLoop1.thisIndex,AOMIpracLoop.thisRepN,AOMIpracLoop.thisTrialN,AOMIpracLoop.thisN,AOMIpracLoop.thisIndex,trials_2.thisRepN,trials_2.thisTrialN,trials_2.thisN,trials_2.thisIndex,AOMI1rateLoop.thisRepN,AOMI1rateLoop.thisTrialN,AOMI1rateLoop.thisN,AOMI1rateLoop.thisIndex,contInstrLoop.thisRepN,contInstrLoop.thisTrialN,contInstrLoop.thisN,contInstrLoop.thisIndex,contPracLoop.thisRepN,contPracLoop.thisTrialN,contPracLoop.thisN,contPracLoop.thisIndex,trials_3.thisRepN,trials_3.thisTrialN,trials_3.thisN,trials_3.thisIndex,contRateLoop.thisRepN,contRateLoop.thisTrialN,contRateLoop.thisN,contRateLoop.thisIndex,AOMIinstrLoop2.thisRepN,AOMIinstrLoop2.thisTrialN,AOMIinstrLoop2.thisN,AOMIinstrLoop2.thisIndex,AOMIpracLoop2.thisRepN,AOMIpracLoop2.thisTrialN,AOMIpracLoop2.thisN,AOMIpracLoop2.thisIndex,trials_4.thisRepN,trials_4.thisTrialN,trials_4.thisN,trials_4.thisIndex,AOMI2rateLoop.thisRepN,AOMI2rateLoop.thisTrialN,AOMI2rateLoop.thisN,AOMI2rateLoop.thisIndex,pracBkgdKeys.keys,pracBkgdKeys.rt,pracKeys.keys,pracKeys.rt,baseBkgdKeys.keys,base_typedWord,baseKeys.keys,baseKeys.rt,baseBkgdKeys.rt,baseRateTypeKey.keys,baseRateTypeKey.rt,AOMI1_BkgdKeys.keys,AOMI_promptBkgdKeys.keys,AOMI1pracKeys.keys,AOMI1pracKeys.rt,AOMI1bkdgKeys.keys,AOMI1_typedWord,AOMI1keys.keys,AOMI1keys.rt,AOMI1bkdgKeys.rt,AOMI1rateTypeKey.keys,AOMI1rateTypeKey.rt,polygon_prac.started,polygon_prac.stopped,contBkgdKeys_prac.keys,contPrac_typedWord,contKeys_prac.keys,contKeys_prac.rt,polygon.started,polygon.stopped,contBkgdKeys.keys,cont_typedWord,contKeys.keys,contKeys.rt,contTypeKey.keys,contTypeKey.rt,bkgdkeys_prac2.keys,bkgdKeys4.keys,AOMI2_typedWord,keyboardCom4.keys,keyboardCom4.rt,AOMI2typeKey.keys,AOMI2typeKey.rt,participant,session,group,date,expName,psychopyVersion,frameRate,
height,,,,,,,,,,,,,,,,,,,,,,,,,,0,0,0,0,,,,,,,,,,,,,,,,,,,,,,,,,,,,,,,,,,,,,,,,,,,,,,,,,,,,,,,,,['return'],[1.923666200000298],['return'],[1.129463900000701],,,,,,,,,,,,,,,,,,,,,,,,,,,,,,,,,,,,,,,,13,001,H,2023_Feb_08_1444,student_TT_local,2021.1.4,60.14925435970452,
update,,,,,,,,,,,,,,,,,,,,,,,,,,0,1,1,2,,,,,,,,,,,,,,,,,,,,,,,,,,,,,,,,,,,,,,,,,,,,,,,,,,,,,,,,,None,,"['u', 'p', 'd', 'a', 't', 'e', 'return']","[2.9706560999984504, 3.3783140999985335, 3.8503294000001915, 4.794583700000658, 4.92232309999963, 5.050622399998247, 6.170784999998432]",,,,,,,,,,,,,,,,,,,,,,,,,,,,,,,,,,,,,,,,13,001,H,2023_Feb_08_1444,student_TT_local,2021.1.4,60.14925435970452,
replay,,,,,,,,,,,,,,,,,,,,,,,,,,0,2,2,1,,,,,,,,,,,,,,,,,,,,,,,,,,,,,,,,,,,,,,,,,,,,,,,,,,,,,,,,,None,,"['r', 'e', 'p', 'l', 'a', 'y', 'return']","[1.5597044999994978, 1.639847099999315, 1.8318165999990015, 2.511766699997679, 2.7277503999976034, 3.224244599998201, 4.447461600000679]",,,,,,,,,,,,,,,,,,,,,,,,,,,,,,,,,,,,,,,,13,001,H,2023_Feb_08_1444,student_TT_local,2021.1.4,60.14925435970452,
update,,,,,,,,,,,,,,,,,,,,,,,,,,1,0,3,2,,,,,,,,,,,,,,,,,,,,,,,,,,,,,,,,,,,,,,,,,,,,,,,,,,,,,,,,,['r'],[0.9033283999997366],"['u', 'p', 'd', 'a', 't', 'e', 'return']","[1.707936899998458, 2.123850500000117, 2.4354270999974688, 2.540483499997208, 2.683933199998137, 2.811930099996971, 3.6595968999972683]",,,,,,,,,,,,,,,,,,,,,,,,,,,,,,,,,,,,,,,,13,001,H,2023_Feb_08_1444,student_TT_local,2021.1.4,60.14925435970452,
height,,,,,,,,,,,,,,,,,,,,,,,,,,1,1,4,0,,,,,,,,,,,,,,,,,,,,,,,,,,,,,,,,,,,,,,,,,,,,,,,,,,,,,,,,,None,,"['h', 'e', 'i', 'g', 'h', 't', 'return']","[0.7120963000015763, 0.8318307000008645, 1.1037295999994967, 1.4558862000012596, 1.6245645000017248, 1.8797377000009874, 2.719604000001709]",,,,,,,,,,,,,,,,,,,,,,,,,,,,,,,,,,,,,,,,13,001,H,2023_Feb_08_1444,student_TT_local,2021.1.4,60.14925435970452,
replay,,,,,,,,,,,,,,,,,,,,,,,,,,1,2,5,1,,,,,,,,,,,,,,,,,,,,,,,,,,,,,,,,,,,,,,,,,,,,,,,,,,,,,,,,,None,,"['r', 'e', 'p', 'l', 'a', 'y', 'return']","[0.45763499999884516, 0.5456922000012128, 0.6979752000006556, 1.2179065000018454, 1.6271019999985583, 1.8022458000014012, 2.826360200000636]",,,,,,,,,,,,,,,,,,,,,,,,,,,,,,,,,,,,,,,,13,001,H,2023_Feb_08_1444,student_TT_local,2021.1.4,60.14925435970452,
,None,None,None,None,None,None,None,None,None,None,oblige,mystic,6.5,7.5,video&audio/sentence4_TT_3X.mp4,video&audio/infirm_TT_3X.mp4,pulpit,infirm,None,,,,,,,,,,,0,0,0,3,,,,,,,,,,,,,,,,,,,,,,,,,,,,,,,,,,,,,,,,,,,,,,,,,,,,,,,,,None, oblige,"['o', 'b', 'l', 'i', 'g', 'e', 'return']","[0.8873295000012149, 1.2470035000005737, 1.3992070999993302, 1.7271513999985473, 2.0953273000013724, 2.223228700000618, 2.7996472000013455]",,,,,,,,,,,,,,,,,,,,,,,,,,,,,,,,,,,,13,001,H,2023_Feb_08_1444,student_TT_local,2021.1.4,60.14925435970452,
,None,None,None,None,None,None,None,None,None,None,primal,entail,6.5,7.5,video&audio/sentence5_TT_3X.mp4,video&audio/novice_TT_3X.mp4,parcel,novice,None,,,,,,,,,,,0,1,1,4,,,,,,,,,,,,,,,,,,,,,,,,,,,,,,,,,,,,,,,,,,,,,,,,,,,,,,,,,None, primal,"['p', 'r', 'i', 'm', 'a', 'l', 'return']","[1.1458592000017234, 1.2663188000005903, 1.4820573000033619, 1.7702983000017412, 1.9941337000018393, 2.2822958000033395, 3.0915312000033737]",,,,,,,,,,,,,,,,,,,,,,,,,,,,,,,,,,,,13,001,H,2023_Feb_08_1444,student_TT_local,2021.1.4,60.14925435970452,
,None,None,None,None,None,None,None,None,None,None,mangle,warble,19.5,20.5,video&audio/Sentence1_touch_edited.mp4,video&audio/fodder_touch_edited.mp4,devise,fodder,None,,,,,,,,,,,0,2,2,24,,,,,,,,,,,,,,,,,,,,,,,,,,,,,,,,,,,,,,,,,,,,,,,,,,,,,,,,,None, mangle,"['m', 'a', 'n', 'g', 'l', 'e', 'return']","[1.0755258000026515, 1.1790508000012778, 1.395200400002068, 1.6346574000017426, 2.0266271000000415, 2.1874322000003303, 2.419002600003296]",,,,,,,,,,,,,,,,,,,,,,,,,,,,,,,,,,,,13,001,H,2023_Feb_08_1444,student_TT_local,2021.1.4,60.14925435970452,
,None,None,None,None,None,None,None,None,None,None,joiner,apathy,6.5,7.5,video&audio/sentence6_TT_3X.mp4,video&audio/revolt_TT_3X.mp4,virile,revolt,None,,,,,,,,,,,0,3,3,5,,,,,,,,,,,,,,,,,,,,,,,,,,,,,,,,,,,,,,,,,,,,,,,,,,,,,,,,,None, joiner,"['j', 'p', 'backspace', 'o', 'i', 'n', 'e', 'r', 'return']","[0.7689834000011615, 1.073454400000628, 2.4167035999998916, 2.8573131000011927, 3.0487805000011576, 3.3289585999991687, 3.481392900001083, 3.608652800001437, 4.441690399999061]",,,,,,,,,,,,,,,,,,,,,,,,,,,,,,,,,,,,13,001,H,2023_Feb_08_1444,student_TT_local,2021.1.4,60.14925435970452,
,None,None,None,None,None,None,None,None,None,None,patent,defame,6.5,7.5,video&audio/sentence6_TT_3X.mp4,video&audio/quarry_TT_3X.mp4,covert,quarry,None,,,,,,,,,,,0,4,4,11,,,,,,,,,,,,,,,,,,,,,,,,,,,,,,,,,,,,,,,,,,,,,,,,,,,,,,,,,None, patent,"['p', 'a', 't', 'e', 'n', 't', 'return']","[0.9463042999996105, 1.0668202999986534, 1.810331299999234, 1.9224780000004102, 2.2102935000002617, 2.5075983999995515, 2.970512299998518]",,,,,,,,,,,,,,,,,,,,,,,,,,,,,,,,,,,,13,001,H,2023_Feb_08_1444,student_TT_local,2021.1.4,60.14925435970452,
,"While you watch the video, imagine yourself typing the word on the screen, like how you did in the imagery practice. While you watch the video and imagine this, rest your hands on your keyboard but DO NOT type until AFTER you see the typing prompt.

Press 'enter/return' to go to the next page.","While watching the video, imagine yourself typing the word on the screen, like how you did in the imagery practice. While you watch the video and imagine this, rest your hands on your keyboard but DO NOT type until AFTER you see the typing prompt.

Press 'enter/return' to go to the next page.",video&audio/Example_AOMI_imagine.png,1.6,1,butter,6.5,7.5,video&audio/amount_TT_3X.mp4,video&audio/butter_TT_3X.mp4,metric,eatery,6.5,7.5,video&audio/sentence2_TT_3X.mp4,video&audio/plight_TT_3X.mp4,ascend,plight,2 = AOMIspec,,,,,,,,,,,0,5,5,1,,,,,,,,,,,,,,,,,,,,,,,,,,,,,,,,,,,,,,,,,,,,,,,,,,,,,,,,,None, metric,"['m', 'e', 't', 'r', 'i', 'c', 'return']","[0.6086628000011842, 0.7692024000025413, 1.0326799000031315, 1.192276400000992, 1.6409264000030817, 1.8081989000020258, 2.1602254000026733]",,,,,,,,,,,,,,,,,,,,,,,,,,,,,,,,,,,,13,001,H,2023_Feb_08_1444,student_TT_local,2021.1.4,60.14925435970452,
,None,None,None,None,None,None,None,None,None,None,clergy,portal,19.5,20.5,video&audio/Sentence6_touch_edited.mp4,video&audio/murmur_touch_edited.mp4,ritual,murmur,None,,,,,,,,,,,0,6,6,17,,,,,,,,,,,,,,,,,,,,,,,,,,,,,,,,,,,,,,,,,,,,,,,,,,,,,,,,,None, clergy,"['c', 'l', 'e', 'r', 'g', 'y', 'return']","[0.7491341999993892, 0.8934337999999116, 1.357428200000868, 1.6612691000009363, 2.2290409000015643, 2.4290913000004366, 3.4054065000018454]",,,,,,,,,,,,,,,,,,,,,,,,,,,,,,,,,,,,13,001,H,2023_Feb_08_1444,student_TT_local,2021.1.4,60.14925435970452,
,None,None,None,None,None,None,None,None,None,None,jailer,nettle,19.5,20.5,video&audio/Sentence5_touch_edited.mp4,video&audio/convoy_touch_edited.mp4,plasma,convoy,None,,,,,,,,,,,0,7,7,16,,,,,,,,,,,,,,,,,,,,,,,,,,,,,,,,,,,,,,,,,,,,,,,,,,,,,,,,,None, jailer,"['j', 'a', 'i', 'l', 'e', 'r', 'return']","[0.5149703999995836, 0.6670398000023852, 1.2588458999998693, 1.4831517999991775, 1.8832435000003898, 2.010630400000082, 2.7312301999991178]",,,,,,,,,,,,,,,,,,,,,,,,,,,,,,,,,,,,13,001,H,2023_Feb_08_1444,student_TT_local,2021.1.4,60.14925435970452,
,None,None,None,None,None,None,None,None,None,None,zephyr,fusion,6.5,7.5,video&audio/sentence5_TT_3X.mp4,video&audio/critic_TT_3X.mp4,obsess,critic,None,,,,,,,,,,,0,8,8,10,,,,,,,,,,,,,,,,,,,,,,,,,,,,,,,,,,,,,,,,,,,,,,,,,,,,,,,,,None, zephyr,"['z', 'e', 'p', 'h', 'y', 'r', 'return']","[0.8765720000010333, 1.2685079000002588, 1.4203675999997358, 2.668223200002103, 3.4683698000008008, 3.6288769000020693, 4.6608436000024085]",,,,,,,,,,,,,,,,,,,,,,,,,,,,,,,,,,,,13,001,H,2023_Feb_08_1444,student_TT_local,2021.1.4,60.14925435970452,
,None,None,None,None,None,None,None,None,None,None,innate,tamper,6.5,7.5,video&audio/sentence1_TT_3X.mp4,video&audio/sonnet_TT_3X.mp4,confer,sonnet,None,,,,,,,,,,,0,9,9,12,,,,,,,,,,,,,,,,,,,,,,,,,,,,,,,,,,,,,,,,,,,,,,,,,,,,,,,,,None, innate,"['i', 'n', 'n', 'a', 't', 'e', 'return']","[0.4961086000002979, 0.8724876000014774, 0.9920775999999023, 1.1045324000006076, 1.376250200002687, 1.4961670000011509, 2.3363581000012346]",,,,,,,,,,,,,,,,,,,,,,,,,,,,,,,,,,,,13,001,H,2023_Feb_08_1444,student_TT_local,2021.1.4,60.14925435970452,
,None,None,None,None,None,None,None,None,None,None,fungal,mucous,19.5,20.5,video&audio/Sentence5_touch_edited.mp4,video&audio/musket_touch_edited.mp4,subtle,musket,None,,,,,,,,,,,0,10,10,22,,,,,,,,,,,,,,,,,,,,,,,,,,,,,,,,,,,,,,,,,,,,,,,,,,,,,,,,,None, fungal,"['f', 'u', 'n', 'g', 'a', 'l', 'return']","[0.7278184999995574, 0.8472541999981331, 1.6471893999987515, 1.9031474999974307, 2.0397344999983034, 2.302900499998941, 2.65538369999922]",,,,,,,,,,,,,,,,,,,,,,,,,,,,,,,,,,,,13,001,H,2023_Feb_08_1444,student_TT_local,2021.1.4,60.14925435970452,
,None,None,None,None,None,None,None,None,None,None,shrewd,revoke,6.5,7.5,video&audio/sentence1_TT_3X.mp4,video&audio/mirage_TT_3X.mp4,malady,mirage,None,,,,,,,,,,,0,11,11,6,,,,,,,,,,,,,,,,,,,,,,,,,,,,,,,,,,,,,,,,,,,,,,,,,,,,,,,,,None, shrewd,"['s', 'h', 'r', 'e', 'w', 'd', 'return']","[0.9595731000008527, 1.1033027000012225, 1.7195443000018713, 1.975430900001811, 2.5845049000017752, 2.832209200001671, 3.463762499999575]",,,,,,,,,,,,,,,,,,,,,,,,,,,,,,,,,,,,13,001,H,2023_Feb_08_1444,student_TT_local,2021.1.4,60.14925435970452,
,None,None,None,None,None,None,None,None,None,None,parish,gullet,19.5,20.5,video&audio/Sentence5_touch_edited.mp4,video&audio/manure_touch_edited.mp4,picket,manure,None,,,,,,,,,,,0,12,12,28,,,,,,,,,,,,,,,,,,,,,,,,,,,,,,,,,,,,,,,,,,,,,,,,,,,,,,,,,None, parish,"['p', 'a', 'r', 'i', 's', 'h', 'return']","[0.7412604000019201, 0.8532685000027413, 1.2214112000001478, 1.4857861000018602, 1.830501100001129, 2.0455313000020396, 3.109886500002176]",,,,,,,,,,,,,,,,,,,,,,,,,,,,,,,,,,,,13,001,H,2023_Feb_08_1444,student_TT_local,2021.1.4,60.14925435970452,
,None,None,None,None,None,None,None,None,None,None,delude,galley,6.5,7.5,video&audio/sentence2_TT_3X.mp4,video&audio/strife_TT_3X.mp4,tariff,strife,None,,,,,,,,,,,0,13,13,7,,,,,,,,,,,,,,,,,,,,,,,,,,,,,,,,,,,,,,,,,,,,,,,,,,,,,,,,,None, delude,"['d', 'e', 'l', 'u', 'd', 'e', 'return']","[0.5849785000027623, 0.7618911000026856, 1.0330501000025833, 1.3452971000006073, 1.5546699000005901, 1.5858416000010038, 2.840960100002121]",,,,,,,,,,,,,,,,,,,,,,,,,,,,,,,,,,,,13,001,H,2023_Feb_08_1444,student_TT_local,2021.1.4,60.14925435970452,
,None,None,None,None,None,None,None,None,None,None,caviar,shrill,19.5,20.5,video&audio/Sentence3_touch_edited.mp4,video&audio/brazen_touch_edited.mp4,piston,brazen,None,,,,,,,,,,,0,14,14,20,,,,,,,,,,,,,,,,,,,,,,,,,,,,,,,,,,,,,,,,,,,,,,,,,,,,,,,,,None, caviar,"['c', 'a', 'v', 'i', 'a', 'r', 'return']","[0.6622170000009646, 0.8461888999991061, 1.4856556999984605, 1.790845999999874, 1.9817008999998507, 2.125640399997792, 2.557988500000647]",,,,,,,,,,,,,,,,,,,,,,,,,,,,,,,,,,,,13,001,H,2023_Feb_08_1444,student_TT_local,2021.1.4,60.14925435970452,
,None,None,None,None,None,None,None,None,None,None,septic,ordain,19.5,20.5,video&audio/sentence2_TT_3X.mp4,video&audio/potent_touch_edited.mp4,neural,potent,None,,,,,,,,,,,0,15,15,13,,,,,,,,,,,,,,,,,,,,,,,,,,,,,,,,,,,,,,,,,,,,,,,,,,,,,,,,,['s'], septic,"['s', 'e', 'p', 't', 'i', 'c', 'return']","[0.3940400999999838, 0.7538381999984267, 1.0342380000001867, 1.5298321999980544, 1.6737605999987863, 1.9460555000005115, 2.770281499997509]",[1.5571909000027517],,,,,,,,,,,,,,,,,,,,,,,,,,,,,,,,,,,13,001,H,2023_Feb_08_1444,student_TT_local,2021.1.4,60.14925435970452,
,"Remember to type as QUICKLY and ACCURATELY as possible after the 'get ready' prompt.

Ask the experimenter any questions now. Please put on the headphones.

You will get one practice trial. Press 'enter/return' when you are ready to start the practice.","Remember to type as QUICKLY and ACCURATELY as you can after the 'get ready' prompt.

Ask the experimenter any questions now. Please put on the headphones.

You will get one practice trial. Press 'enter/return' when you are ready to start the practice.",video&audio/Example_AOMI_total.png,1.8,0.7,None,None,None,None,None,oppose,ghetto,6.5,7.5,video&audio/sentence3_TT_3X.mp4,video&audio/jargon_TT_3X.mp4,frugal,jargon,None,,,,,,,,,,,0,16,16,2,,,,,,,,,,,,,,,,,,,,,,,,,,,,,,,,,,,,,,,,,,,,,,,,,,,,,,,,,None, oppose,"['o', 'p', 'p', 'o', 's', 'e', 'return']","[0.5141408000017691, 0.9462359999997716, 1.129934399999911, 1.93105579999974, 2.139163499999995, 2.3782403000004706, 3.226075700000365]",,,,,,,,,,,,,,,,,,,,,,,,,,,,,,,,,,,,13,001,H,2023_Feb_08_1444,student_TT_local,2021.1.4,60.14925435970452,
,"This is Section 2.

In this section, your task will be the same as before - that is, to type the word you see on the screen AFTER the typing prompt. However, rather than just seeing the word before typing, you will also see a video of someone typing different words to what you will need to type at different speeds. 

Press 'enter/return' to go to the next page.","This is Section 4. 

In this section, your task will be the same as before - that is, to type the word you see on the screen after the typing prompt. You will see a video again, like in Section 2, only this time, the video will show someone the same word that you must type at different speeds. 

Press 'enter/return' to go to the next page.",video&audio/Example_AOMI_layout.png,1.6,0.6,afford,19.5,20.5,video&audio/amount_touch_edited.mp4,video&audio/afford_touch_edited.mp4,hinder,breach,6.5,7.5,video&audio/sentence1_TT_3X.mp4,video&audio/vanity_TT_3X.mp4,matrix,vanity,1 = AOMIgen,,,,,,,,,,,0,17,17,0,,,,,,,,,,,,,,,,,,,,,,,,,,,,,,,,,,,,,,,,,,,,,,,,,,,,,,,,,None, hinder,"['h', 'i', 'n', 'd', 'e', 'r', 'return']","[0.8004369000009319, 1.040209999999206, 1.28786079999918, 1.511662000000797, 1.607805700001336, 1.8241663000007975, 2.26390739999988]",,,,,,,,,,,,,,,,,,,,,,,,,,,,,,,,,,,,13,001,H,2023_Feb_08_1444,student_TT_local,2021.1.4,60.14925435970452,
,None,None,None,None,None,None,None,None,None,None,feudal,matron,19.5,20.5,video&audio/Sentence3_touch_edited.mp4,video&audio/legion_touch_edited.mp4,subdue,legion,None,,,,,,,,,,,0,18,18,26,,,,,,,,,,,,,,,,,,,,,,,,,,,,,,,,,,,,,,,,,,,,,,,,,,,,,,,,,None, feudal,"['f', 'e', 'u', 'd', 'a', 'l', 'return']","[0.9287618000016664, 1.0406767999993463, 1.2654253000000608, 1.5288620999999694, 1.8248142000011285, 2.2247628000004624, 2.7125071000009484]",,,,,,,,,,,,,,,,,,,,,,,,,,,,,,,,,,,,13,001,H,2023_Feb_08_1444,student_TT_local,2021.1.4,60.14925435970452,
,None,None,None,None,None,None,None,None,None,None,meddle,divert,19.5,20.5,video&audio/Sentence2_touch_edited.mp4,video&audio/upkeep_touch_edited.mp4,kipper,upkeep,None,,,,,,,,,,,0,19,19,25,,,,,,,,,,,,,,,,,,,,,,,,,,,,,,,,,,,,,,,,,,,,,,,,,,,,,,,,,None, meddle,"['m', 'e', 'd', 'd', 'l', 'e', 'return']","[0.7132935000008729, 0.8414063000018359, 1.0174404999997932, 1.201938500002143, 1.4096725000017614, 1.5291119000030449, 2.4340518999997585]",,,,,,,,,,,,,,,,,,,,,,,,,,,,,,,,,,,,13,001,H,2023_Feb_08_1444,student_TT_local,2021.1.4,60.14925435970452,
,None,None,None,None,None,None,None,None,None,None,tandem,origin,19.5,20.5,video&audio/Sentence4_touch_edited.mp4,video&audio/coerce_touch_edited.mp4,falter,coerce,None,,,,,,,,,,,0,20,20,15,,,,,,,,,,,,,,,,,,,,,,,,,,,,,,,,,,,,,,,,,,,,,,,,,,,,,,,,,None, tandem,"['t', 'a', 'n', 'd', 'e', 'm', 'return']","[0.8757340999982262, 0.9953380000006291, 1.2915056999991066, 1.4435421000016504, 1.5077535999989777, 1.7478764000006777, 2.41932000000088]",,,,,,,,,,,,,,,,,,,,,,,,,,,,,,,,,,,,13,001,H,2023_Feb_08_1444,student_TT_local,2021.1.4,60.14925435970452,
,None,None,None,None,None,None,None,None,None,None,cobble,export,19.5,20.5,video&audio/Sentence2_touch_edited.mp4,video&audio/savant_touch_edited.mp4,cervix,savant,None,,,,,,,,,,,0,21,21,19,,,,,,,,,,,,,,,,,,,,,,,,,,,,,,,,,,,,,,,,,,,,,,,,,,,,,,,,,None, cobble,"['c', 'o', 'b', 'b', 'l', 'e', 'return']","[0.8343959000012546, 0.9620954000019992, 1.2821025000012014, 2.730600200000481, 2.9943287999994936, 3.1140675000024203, 3.290991699999722]",,,,,,,,,,,,,,,,,,,,,,,,,,,,,,,,,,,,13,001,H,2023_Feb_08_1444,student_TT_local,2021.1.4,60.14925435970452,
,None,None,None,None,None,None,None,None,None,None,campus,allure,6.5,7.5,video&audio/Sentence6_touch_edited.mp4,video&audio/binder_TT_3X.mp4,forage,binder,None,,,,,,,,,,,0,22,22,29,,,,,,,,,,,,,,,,,,,,,,,,,,,,,,,,,,,,,,,,,,,,,,,,,,,,,,,,,None, campus,"['c', 'a', 'm', 'p', 'u', 's', 'return']","[0.42704890000095475, 0.5389643000016804, 0.6753171000018483, 1.0588692000019364, 1.4350913999987824, 1.6429434000019683, 2.2997701999993296]",,,,,,,,,,,,,,,,,,,,,,,,,,,,,,,,,,,,13,001,H,2023_Feb_08_1444,student_TT_local,2021.1.4,60.14925435970452,
,None,None,None,None,None,None,None,None,None,None,trench,ethnic,6.5,7.5,video&audio/Sentence4_touch_edited.mp4,video&audio/goblet_TT_3X.mp4,botany,goblet,None,,,,,,,,,,,0,23,23,27,,,,,,,,,,,,,,,,,,,,,,,,,,,,,,,,,,,,,,,,,,,,,,,,,,,,,,,,,None, trench,"['t', 'r', 'e', 'n', 'c', 'h', 'return']","[0.48238629999832483, 0.8264758000004804, 0.9622237000003224, 1.6264413999997487, 1.7782937999982096, 1.9462265000001935, 2.5223721000002115]",,,,,,,,,,,,,,,,,,,,,,,,,,,,,,,,,,,,13,001,H,2023_Feb_08_1444,student_TT_local,2021.1.4,60.14925435970452,
,None,None,None,None,None,None,None,None,None,None,output,uphold,19.5,20.5,video&audio/Sentence1_touch_edited.mp4,video&audio/pursue_touch_edited.mp4,debtor,pursue,None,,,,,,,,,,,0,24,24,18,,,,,,,,,,,,,,,,,,,,,,,,,,,,,,,,,,,,,,,,,,,,,,,,,,,,,,,,,None, output,"['o', 'u', 't', 'p', 'p', 'u', 't', 'backspace', 'backspace', 'backspace', 'u', 't', 'return']","[0.6313585999996576, 0.911849499996606, 1.2081621999968775, 1.5913981999983662, 1.6880575999966823, 2.063615499999287, 2.4800640999965253, 3.27210070000001, 3.400007899999764, 3.5278082999975595, 4.27189670000007, 4.391638799999782, 4.799933599999349]",,,,,,,,,,,,,,,,,,,,,,,,,,,,,,,,,,,,13,001,H,2023_Feb_08_1444,student_TT_local,2021.1.4,60.14925435970452,
,None,None,None,None,None,None,None,None,None,None,induce,mussel,19.5,20.5,video&audio/Sentence4_touch_edited.mp4,video&audio/satire_touch_edited.mp4,cortex,satire,None,,,,,,,,,,,0,25,25,21,,,,,,,,,,,,,,,,,,,,,,,,,,,,,,,,,,,,,,,,,,,,,,,,,,,,,,,,,None, induce,"['i', 'n', 'd', 'u', 'c', 'e', 'return']","[0.8663764000011724, 1.090491099999781, 1.314568199999485, 1.5141561000018555, 1.7941823000001023, 1.9141335000022082, 2.2986764000015683]",,,,,,,,,,,,,,,,,,,,,,,,,,,,,,,,,,,,13,001,H,2023_Feb_08_1444,student_TT_local,2021.1.4,60.14925435970452,
,None,None,None,None,None,None,None,None,None,None,hamlet,shroud,6.5,7.5,video&audio/sentence4_TT_3X.mp4,video&audio/sherry_TT_3X.mp4,jackal,sherry,None,,,,,,,,,,,0,26,26,9,,,,,,,,,,,,,,,,,,,,,,,,,,,,,,,,,,,,,,,,,,,,,,,,,,,,,,,,,None, hamlet,"['h', 'a', 'm', 'l', 'e', 't', 'return']","[0.4624954999999318, 0.606344399999216, 1.150460299999395, 1.3666231999995944, 1.4868828999969992, 1.7028218999985256, 2.1904603999973915]",,,,,,,,,,,,,,,,,,,,,,,,,,,,,,,,,,,,13,001,H,2023_Feb_08_1444,student_TT_local,2021.1.4,60.14925435970452,
,None,None,None,None,None,None,None,None,None,None,hearth,herbal,19.5,20.5,video&audio/sentence3_TT_3X.mp4,video&audio/deduct_touch_edited.mp4,hippie,deduct,None,,,,,,,,,,,0,27,27,14,,,,,,,,,,,,,,,,,,,,,,,,,,,,,,,,,,,,,,,,,,,,,,,,,,,,,,,,,None, hearth,"['h', 'e', 'a', 'r', 't', 'h', 'return']","[0.763837099999364, 0.9230731000025116, 1.147377699999197, 1.3238649000013538, 1.5068514000013238, 1.8669773000001442, 2.4432957000026363]",,,,,,,,,,,,,,,,,,,,,,,,,,,,,,,,,,,,13,001,H,2023_Feb_08_1444,student_TT_local,2021.1.4,60.14925435970452,
,None,None,None,None,None,None,None,None,None,None,girdle,linear,19.5,20.5,video&audio/Sentence6_touch_edited.mp4,video&audio/impose_touch_edited.mp4,belfry,impose,None,,,,,,,,,,,0,28,28,23,,,,,,,,,,,,,,,,,,,,,,,,,,,,,,,,,,,,,,,,,,,,,,,,,,,,,,,,,None, girdle,"['g', 'i', 'r', 'd', 'l', 'e', 'return']","[0.8531743000021379, 1.4133123999999953, 1.5411370000001625, 1.8375691000001098, 1.9894676000003528, 2.1017867000009574, 2.5495665999987978]",,,,,,,,,,,,,,,,,,,,,,,,,,,,,,,,,,,,13,001,H,2023_Feb_08_1444,student_TT_local,2021.1.4,60.14925435970452,
,None,None,None,None,None,None,None,None,None,None,befall,ration,6.5,7.5,video&audio/sentence3_TT_3X.mp4,video&audio/parole_TT_3X.mp4,solemn,parole,None,,,,,,,,,,,0,29,29,8,,,,,,,,,,,,,,,,,,,,,,,,,,,,,,,,,,,,,,,,,,,,,,,,,,,,,,,,,None, befall,"['b', 'e', 'f', 'a', 'l', 'l']","[0.6095561000001908, 0.7450637999972969, 1.2969116999993275, 1.393056400000205, 1.8736176999991585, 2.001094600000215]",,,,,,,,,,,,,,,,,,,,,,,,,,,,,,,,,,,,13,001,H,2023_Feb_08_1444,student_TT_local,2021.1.4,60.14925435970452,
,,,,,,,,,,,,,,,,,,,,typingRatingScale.png,"How would you rate your typing performance in the previous section?

Press a number on your keyboard according to the rating scale below to give your answer. Your first answer will be accepted.",,,,,,,,,,,,,0,0,0,0,,,,,,,,,,,,,,,,,,,,,,,,,,,,,,,,,,,,,,,,,,,,,,,,,,,,,,,,,,['4'],[23.593792600000597],,,,,,,,,,,,,,,,,,,,,,,,,,,,,,,,,13,001,H,2023_Feb_08_1444,student_TT_local,2021.1.4,60.14925435970452,
,,,,,,,,,,,,,,,,,,,,imageryCheckScale.png,"In the previous section did you imagine yourself typing?

Press a number on your keyboard according to the rating scale below to give your answer. Your first answer will be accepted.",,,,,,,,,,,,,0,1,1,1,,,,,,,,,,,,,,,,,,,,,,,,,,,,,,,,,,,,,,,,,,,,,,,,,,,,,,,,,,['4'],[12.892953800001123],,,,,,,,,,,,,,,,,,,,,,,,,,,,,,,,,13,001,H,2023_Feb_08_1444,student_TT_local,2021.1.4,60.14925435970452,
,None,None,None,None,None,None,None,None,None,None,fungal,mucous,19.5,20.5,video&audio/Sentence5_touch_edited.mp4,video&audio/musket_touch_edited.mp4,subtle,musket,None,,,,,,,,,,,,,,,,,,,,,,,,,,,0,0,0,22,,,,,,,,,,,,,,,,,,,,,,,,,,,,,,,,,,,,,,,,,,,,,,,,None,None,"['b', 'u', 't', 't', 'e', 'r', 'return']","[1.2387118000006012, 1.4218911999996635, 1.8216680000004999, 1.9341120999997656, 2.101969300001656, 2.2619376000002376, 3.0379768000020704]",None, subtle,"['s', 'u', 'b', 't', 'l', 'e', 'return']","[1.0537507999979425, 1.1973106999976153, 1.3739189999978407, 2.092918700000155, 2.2616479999996955, 2.4131689999994705, 2.861501600000338]",,,,,,,,,,,,,,,,,,,,,,,,,13,001,H,2023_Feb_08_1444,student_TT_local,2021.1.4,60.14925435970452,
,None,None,None,None,None,None,None,None,None,None,feudal,matron,19.5,20.5,video&audio/Sentence3_touch_edited.mp4,video&audio/legion_touch_edited.mp4,subdue,legion,None,,,,,,,,,,,,,,,,,,,,,,,,,,,0,1,1,26,,,,,,,,,,,,,,,,,,,,,,,,,,,,,,,,,,,,,,,,,,,,,,,,,None,,,None, subdue,"['s', 'u', 'b', 'd', 'e', 'backspace', 'u', 'e', 'return']","[1.1062354000023333, 1.3462379000011424, 1.5372130000032485, 2.105269900002895, 2.1612542000002577, 2.8659189000027254, 3.2573507000015525, 3.3852639000033378, 4.057477199999994]",,,,,,,,,,,,,,,,,,,,,,,,,13,001,H,2023_Feb_08_1444,student_TT_local,2021.1.4,60.14925435970452,
,None,None,None,None,None,None,None,None,None,None,septic,ordain,19.5,20.5,video&audio/sentence2_TT_3X.mp4,video&audio/potent_touch_edited.mp4,neural,potent,None,,,,,,,,,,,,,,,,,,,,,,,,,,,0,2,2,13,,,,,,,,,,,,,,,,,,,,,,,,,,,,,,,,,,,,,,,,,,,,,,,,,None,,,"['e', 'n', 'n']", neural,"['n', 'e', 'u', 'r', 'a', 'l', 'return']","[1.8232170000010228, 1.9192030000012892, 2.1031537000017124, 2.200161200002185, 2.7191598000026715, 2.8871771000012814, 4.543441100002383]","[8.776162800000748, 12.776249300000927, 18.912051000002975]",,,,,,,,,,,,,,,,,,,,,,,,13,001,H,2023_Feb_08_1444,student_TT_local,2021.1.4,60.14925435970452,
,None,None,None,None,None,None,None,None,None,None,output,uphold,19.5,20.5,video&audio/Sentence1_touch_edited.mp4,video&audio/pursue_touch_edited.mp4,debtor,pursue,None,,,,,,,,,,,,,,,,,,,,,,,,,,,0,3,3,18,,,,,,,,,,,,,,,,,,,,,,,,,,,,,,,,,,,,,,,,,,,,,,,,,None,,,None, debtor,"['d', 'e', 'b', 't', 'o', 'r', 'return']","[1.0448136999984854, 1.1485867999981565, 1.4440533999986656, 1.739972299998044, 1.956282299997838, 2.0683349999999336, 2.4292038999992656]",,,,,,,,,,,,,,,,,,,,,,,,,13,001,H,2023_Feb_08_1444,student_TT_local,2021.1.4,60.14925435970452,
,None,None,None,None,None,None,None,None,None,None,caviar,shrill,19.5,20.5,video&audio/Sentence3_touch_edited.mp4,video&audio/brazen_touch_edited.mp4,piston,brazen,None,,,,,,,,,,,,,,,,,,,,,,,,,,,0,4,4,20,,,,,,,,,,,,,,,,,,,,,,,,,,,,,,,,,,,,,,,,,,,,,,,,,None,,,None, piston,"['p', 'i', 's', 't', 'o', 'n', 'return']","[1.137687200000073, 1.6412579999996524, 1.7701828999997815, 1.977878800000326, 2.3138801000022795, 2.5779189999993832, 3.241263300002174]",,,,,,,,,,,,,,,,,,,,,,,,,13,001,H,2023_Feb_08_1444,student_TT_local,2021.1.4,60.14925435970452,
,None,None,None,None,None,None,None,None,None,None,befall,ration,6.5,7.5,video&audio/sentence3_TT_3X.mp4,video&audio/parole_TT_3X.mp4,solemn,parole,None,,,,,,,,,,,,,,,,,,,,,,,,,,,0,5,5,8,,,,,,,,,,,,,,,,,,,,,,,,,,,,,,,,,,,,,,,,,,,,,,,,,None,,,None, solemn,"['s', 'o', 'l', 'e', 'm', 'n', 'return']","[0.9245229999978619, 1.1164296999995713, 1.2942803999976604, 1.4685037999988708, 1.7409606999972311, 3.965575299996999, 4.2691673999979685]",,,,,,,,,,,,,,,,,,,,,,,,,13,001,H,2023_Feb_08_1444,student_TT_local,2021.1.4,60.14925435970452,
,None,None,None,None,None,None,None,None,None,None,hamlet,shroud,6.5,7.5,video&audio/sentence4_TT_3X.mp4,video&audio/sherry_TT_3X.mp4,jackal,sherry,None,,,,,,,,,,,,,,,,,,,,,,,,,,,0,6,6,9,,,,,,,,,,,,,,,,,,,,,,,,,,,,,,,,,,,,,,,,,,,,,,,,,None,,,None, jackal,"['j', 'a', 'c', 'k', 'a', 'l', 'return']","[1.8811973999982001, 1.9848409000005631, 2.4568749999998545, 2.6812256000011985, 2.832799399999203, 3.177179400001478, 3.9049506000010297]",,,,,,,,,,,,,,,,,,,,,,,,,13,001,H,2023_Feb_08_1444,student_TT_local,2021.1.4,60.14925435970452,
,None,None,None,None,None,None,None,None,None,None,tandem,origin,19.5,20.5,video&audio/Sentence4_touch_edited.mp4,video&audio/coerce_touch_edited.mp4,falter,coerce,None,,,,,,,,,,,,,,,,,,,,,,,,,,,0,7,7,15,,,,,,,,,,,,,,,,,,,,,,,,,,,,,,,,,,,,,,,,,,,,,,,,,None,,,None, falter,"['f', 'a', 'l', 't', 'e', 'r', 'return']","[0.9749430999981996, 1.0870508000007248, 1.614500700001372, 1.9266258999996353, 2.0547417999987374, 2.1345283999980893, 2.8949668999994174]",,,,,,,,,,,,,,,,,,,,,,,,,13,001,H,2023_Feb_08_1444,student_TT_local,2021.1.4,60.14925435970452,
,None,None,None,None,None,None,None,None,None,None,primal,entail,6.5,7.5,video&audio/sentence5_TT_3X.mp4,video&audio/novice_TT_3X.mp4,parcel,novice,None,,,,,,,,,,,,,,,,,,,,,,,,,,,0,8,8,4,,,,,,,,,,,,,,,,,,,,,,,,,,,,,,,,,,,,,,,,,,,,,,,,,None,,,None, parcel,"['p', 'a', 'r', 'c', 'e', 'l', 'return']","[0.9520340999988548, 1.0569733999982418, 1.3363007999978436, 1.583973500000866, 1.7202256999989913, 1.9685590000008233, 2.4406115999991016]",,,,,,,,,,,,,,,,,,,,,,,,,13,001,H,2023_Feb_08_1444,student_TT_local,2021.1.4,60.14925435970452,
,None,None,None,None,None,None,None,None,None,None,girdle,linear,19.5,20.5,video&audio/Sentence6_touch_edited.mp4,video&audio/impose_touch_edited.mp4,belfry,impose,None,,,,,,,,,,,,,,,,,,,,,,,,,,,0,9,9,23,,,,,,,,,,,,,,,,,,,,,,,,,,,,,,,,,,,,,,,,,,,,,,,,,None,,,None, belfry,"['b', 'e', 'l', 'f', 'r', 'y', 'return']","[0.9938468000000285, 1.12946920000104, 1.4738980000001902, 1.881843499999377, 1.977418000002217, 2.2093678999990516, 2.9539284000020416]",,,,,,,,,,,,,,,,,,,,,,,,,13,001,H,2023_Feb_08_1444,student_TT_local,2021.1.4,60.14925435970452,
,None,None,None,None,None,None,None,None,None,None,patent,defame,6.5,7.5,video&audio/sentence6_TT_3X.mp4,video&audio/quarry_TT_3X.mp4,covert,quarry,None,,,,,,,,,,,,,,,,,,,,,,,,,,,0,10,10,11,,,,,,,,,,,,,,,,,,,,,,,,,,,,,,,,,,,,,,,,,,,,,,,,,None,,,None, covert,"['c', 'o', 'v', 'e', 'r', 't', 'return']","[1.3054521000012755, 1.409170200000517, 1.552915899999789, 1.9372290999999677, 2.193527499999618, 2.4094087000012223, 3.0647043000026315]",,,,,,,,,,,,,,,,,,,,,,,,,13,001,H,2023_Feb_08_1444,student_TT_local,2021.1.4,60.14925435970452,
,None,None,None,None,None,None,None,None,None,None,innate,tamper,6.5,7.5,video&audio/sentence1_TT_3X.mp4,video&audio/sonnet_TT_3X.mp4,confer,sonnet,None,,,,,,,,,,,,,,,,,,,,,,,,,,,0,11,11,12,,,,,,,,,,,,,,,,,,,,,,,,,,,,,,,,,,,,,,,,,,,,,,,,,None,,,None, confer,"['c', 'p', 'backspace', 'o', 'n', 'f', 'e', 'r', 'return']","[1.0691002999992634, 1.3324185999990732, 2.308799700000236, 2.956806800000777, 3.188314499999251, 3.492349699998158, 3.588687100000243, 3.7084665000002133, 4.292430000001332]",,,,,,,,,,,,,,,,,,,,,,,,,13,001,H,2023_Feb_08_1444,student_TT_local,2021.1.4,60.14925435970452,
,"This is Section 2.

In this section, your task will be the same as before - that is, to type the word you see on the screen AFTER the typing prompt. However, rather than just seeing the word before typing, you will also see a video of someone typing different words to what you will need to type at different speeds. 

Press 'enter/return' to go to the next page.","This is Section 4. 

In this section, your task will be the same as before - that is, to type the word you see on the screen after the typing prompt. You will see a video again, like in Section 2, only this time, the video will show someone the same word that you must type at different speeds. 

Press 'enter/return' to go to the next page.",video&audio/Example_AOMI_layout.png,1.6,0.6,afford,19.5,20.5,video&audio/amount_touch_edited.mp4,video&audio/afford_touch_edited.mp4,hinder,breach,6.5,7.5,video&audio/sentence1_TT_3X.mp4,video&audio/vanity_TT_3X.mp4,matrix,vanity,1 = AOMIgen,,,,,,,,,,,,,,,,,,,,,,,,,,,0,12,12,0,,,,,,,,,,,,,,,,,,,,,,,,,,,,,,,,,,,,,,,,,,,,,,,,,None,,,None, matrix,"['m', 'a', 't', 'r', 'i', 'x', 'return']","[1.0696889999999257, 1.1655353000023752, 1.5575080000016897, 1.9103982000015094, 2.069683100002294, 2.405700400002388, 2.933308499999839]",,,,,,,,,,,,,,,,,,,,,,,,,13,001,H,2023_Feb_08_1444,student_TT_local,2021.1.4,60.14925435970452,
,None,None,None,None,None,None,None,None,None,None,meddle,divert,19.5,20.5,video&audio/Sentence2_touch_edited.mp4,video&audio/upkeep_touch_edited.mp4,kipper,upkeep,None,,,,,,,,,,,,,,,,,,,,,,,,,,,0,13,13,25,,,,,,,,,,,,,,,,,,,,,,,,,,,,,,,,,,,,,,,,,,,,,,,,,None,,,None, kipper,"['k', 'i', 'p', 'p', 'e', 'r', 'return']","[0.8396439999996801, 1.0235068000001775, 1.3366734000010183, 1.4718859000022348, 1.6237140000012005, 1.775692400002299, 2.3355227000029117]",,,,,,,,,,,,,,,,,,,,,,,,,13,001,H,2023_Feb_08_1444,student_TT_local,2021.1.4,60.14925435970452,
,None,None,None,None,None,None,None,None,None,None,campus,allure,6.5,7.5,video&audio/Sentence6_touch_edited.mp4,video&audio/binder_TT_3X.mp4,forage,binder,None,,,,,,,,,,,,,,,,,,,,,,,,,,,0,14,14,29,,,,,,,,,,,,,,,,,,,,,,,,,,,,,,,,,,,,,,,,,,,,,,,,,None,,,None, forage,"['f', 'o', 'r', 'a', 'g', 'e', 'return']","[0.4554247000014584, 0.7593640999984927, 0.8869282000014209, 1.191174299998238, 1.359567600000446, 1.4391673999998602, 1.9749207999993814]",,,,,,,,,,,,,,,,,,,,,,,,,13,001,H,2023_Feb_08_1444,student_TT_local,2021.1.4,60.14925435970452,
,None,None,None,None,None,None,None,None,None,None,mangle,warble,19.5,20.5,video&audio/Sentence1_touch_edited.mp4,video&audio/fodder_touch_edited.mp4,devise,fodder,None,,,,,,,,,,,,,,,,,,,,,,,,,,,0,15,15,24,,,,,,,,,,,,,,,,,,,,,,,,,,,,,,,,,,,,,,,,,,,,,,,,,None,,,None, devise,"['d', 'e', 'v', 'i', 's', 'e', 'return']","[0.7336152999996557, 0.806048099999316, 1.149973300001875, 1.5262013999999908, 1.686036499999318, 1.9026269999994838, 2.606355399999302]",,,,,,,,,,,,,,,,,,,,,,,,,13,001,H,2023_Feb_08_1444,student_TT_local,2021.1.4,60.14925435970452,
,None,None,None,None,None,None,None,None,None,None,oblige,mystic,6.5,7.5,video&audio/sentence4_TT_3X.mp4,video&audio/infirm_TT_3X.mp4,pulpit,infirm,None,,,,,,,,,,,,,,,,,,,,,,,,,,,0,16,16,3,,,,,,,,,,,,,,,,,,,,,,,,,,,,,,,,,,,,,,,,,,,,,,,,,None,,,None, pulpit,"['p', 'u', 'l', 'p', 'i', 't', 'return']","[0.5527723000013793, 0.8322475000022678, 1.1127320000014151, 1.376162700002169, 1.63225230000171, 1.8800927000011143, 2.208356700000877]",,,,,,,,,,,,,,,,,,,,,,,,,13,001,H,2023_Feb_08_1444,student_TT_local,2021.1.4,60.14925435970452,
,None,None,None,None,None,None,None,None,None,None,cobble,export,19.5,20.5,video&audio/Sentence2_touch_edited.mp4,video&audio/savant_touch_edited.mp4,cervix,savant,None,,,,,,,,,,,,,,,,,,,,,,,,,,,0,17,17,19,,,,,,,,,,,,,,,,,,,,,,,,,,,,,,,,,,,,,,,,,,,,,,,,,None,,,None, cervix,"['e', 'r', 'v', 'i', 'x', 'return']","[0.6204338999996253, 0.7882669999999052, 1.116142700000637, 1.4760571000006166, 1.6442189999979746, 2.620128599999589]",,,,,,,,,,,,,,,,,,,,,,,,,13,001,H,2023_Feb_08_1444,student_TT_local,2021.1.4,60.14925435970452,
,None,None,None,None,None,None,None,None,None,None,jailer,nettle,19.5,20.5,video&audio/Sentence5_touch_edited.mp4,video&audio/convoy_touch_edited.mp4,plasma,convoy,None,,,,,,,,,,,,,,,,,,,,,,,,,,,0,18,18,16,,,,,,,,,,,,,,,,,,,,,,,,,,,,,,,,,,,,,,,,,,,,,,,,,None,,,None, plasma,"['p', 'l', 'a', 's', 'm', 'a', 'return']","[0.7892124999998487, 1.0047319999976025, 1.1967922000003455, 1.4451184999998077, 1.644926699998905, 1.8052492999995593, 2.204792099997576]",,,,,,,,,,,,,,,,,,,,,,,,,13,001,H,2023_Feb_08_1444,student_TT_local,2021.1.4,60.14925435970452,
,None,None,None,None,None,None,None,None,None,None,delude,galley,6.5,7.5,video&audio/sentence2_TT_3X.mp4,video&audio/strife_TT_3X.mp4,tariff,strife,None,,,,,,,,,,,,,,,,,,,,,,,,,,,0,19,19,7,,,,,,,,,,,,,,,,,,,,,,,,,,,,,,,,,,,,,,,,,,,,,,,,,None,,,None, tariff,"['t', 'a', 'r', 'i', 'f', 'f', 'return']","[1.0023202000011224, 1.0987161000011838, 1.2662673000013456, 1.7145482999985688, 1.9310076000001573, 2.0744239000014204, 2.9142529999990074]",,,,,,,,,,,,,,,,,,,,,,,,,13,001,H,2023_Feb_08_1444,student_TT_local,2021.1.4,60.14925435970452,
,None,None,None,None,None,None,None,None,None,None,induce,mussel,19.5,20.5,video&audio/Sentence4_touch_edited.mp4,video&audio/satire_touch_edited.mp4,cortex,satire,None,,,,,,,,,,,,,,,,,,,,,,,,,,,0,20,20,21,,,,,,,,,,,,,,,,,,,,,,,,,,,,,,,,,,,,,,,,,,,,,,,,,None,,,None, cortex,"['c', 'o', 'r', 't', 'e', 'x', 'return']","[0.519392300000618, 0.647371099999873, 0.8636446000018623, 1.0879186999991362, 1.2153910000015458, 1.5603663000001688, 2.0713892999992822]",,,,,,,,,,,,,,,,,,,,,,,,,13,001,H,2023_Feb_08_1444,student_TT_local,2021.1.4,60.14925435970452,
,None,None,None,None,None,None,None,None,None,None,hearth,herbal,19.5,20.5,video&audio/sentence3_TT_3X.mp4,video&audio/deduct_touch_edited.mp4,hippie,deduct,None,,,,,,,,,,,,,,,,,,,,,,,,,,,0,21,21,14,,,,,,,,,,,,,,,,,,,,,,,,,,,,,,,,,,,,,,,,,,,,,,,,,None,,,"['h', 'h']", hippie,"['h', 'i', 'p', 'p', 'i', 'e', 'return']","[0.8150459999997111, 1.1192312999992282, 1.5107368999997561, 1.6390185999989626, 1.887727499997709, 2.0229913000002853, 2.7907261999971524]","[7.782966999999189, 16.535193800002162]",,,,,,,,,,,,,,,,,,,,,,,,13,001,H,2023_Feb_08_1444,student_TT_local,2021.1.4,60.14925435970452,
,None,None,None,None,None,None,None,None,None,None,zephyr,fusion,6.5,7.5,video&audio/sentence5_TT_3X.mp4,video&audio/critic_TT_3X.mp4,obsess,critic,None,,,,,,,,,,,,,,,,,,,,,,,,,,,0,22,22,10,,,,,,,,,,,,,,,,,,,,,,,,,,,,,,,,,,,,,,,,,,,,,,,,,None,,,None, obsess,"['o', 'b', 's', 'e', 's', 's', 'return']","[1.634341699998913, 2.3541112000020803, 2.498430499999813, 2.706382600001234, 2.9630671000013535, 3.10668490000171, 3.2826561000001675]",,,,,,,,,,,,,,,,,,,,,,,,,13,001,H,2023_Feb_08_1444,student_TT_local,2021.1.4,60.14925435970452,
,None,None,None,None,None,None,None,None,None,None,shrewd,revoke,6.5,7.5,video&audio/sentence1_TT_3X.mp4,video&audio/mirage_TT_3X.mp4,malady,mirage,None,,,,,,,,,,,,,,,,,,,,,,,,,,,0,23,23,6,,,,,,,,,,,,,,,,,,,,,,,,,,,,,,,,,,,,,,,,,,,,,,,,,None,,,None, malady,"['m', 'a', 'l', 'd', 'a', 'backspace', 'backspace', 'a', 'd', 'y', 'return']","[0.6438533000000461, 0.7472699000027205, 1.1871783000024152, 1.3074398000026122, 1.427324000000226, 2.323315800000273, 2.739670200000546, 3.2914887000006274, 3.73931950000042, 3.9238259000012476, 4.2832152000009955]",,,,,,,,,,,,,,,,,,,,,,,,,13,001,H,2023_Feb_08_1444,student_TT_local,2021.1.4,60.14925435970452,
,None,None,None,None,None,None,None,None,None,None,parish,gullet,19.5,20.5,video&audio/Sentence5_touch_edited.mp4,video&audio/manure_touch_edited.mp4,picket,manure,None,,,,,,,,,,,,,,,,,,,,,,,,,,,0,24,24,28,,,,,,,,,,,,,,,,,,,,,,,,,,,,,,,,,,,,,,,,,,,,,,,,,None,,,None, picket,"['p', 'i', 'c', 'k', 'e', 't', 'return']","[0.8500927000022784, 1.088905299999169, 1.4331356000002415, 1.5932338000020536, 1.7451194000022952, 2.000799699999334, 2.8088573000022734]",,,,,,,,,,,,,,,,,,,,,,,,,13,001,H,2023_Feb_08_1444,student_TT_local,2021.1.4,60.14925435970452,
,None,None,None,None,None,None,None,None,None,None,clergy,portal,19.5,20.5,video&audio/Sentence6_touch_edited.mp4,video&audio/murmur_touch_edited.mp4,ritual,murmur,None,,,,,,,,,,,,,,,,,,,,,,,,,,,0,25,25,17,,,,,,,,,,,,,,,,,,,,,,,,,,,,,,,,,,,,,,,,,,,,,,,,,None,,,None, ritual,"['r', 'i', 't', 'u', 'a', 'l', 'return']","[1.0298996999990777, 1.1738355999987107, 1.5257920999974885, 1.7813974999990023, 1.8936455000002752, 2.4291926999976567, 3.0376805999985663]",,,,,,,,,,,,,,,,,,,,,,,,,13,001,H,2023_Feb_08_1444,student_TT_local,2021.1.4,60.14925435970452,
,"Remember to type as QUICKLY and ACCURATELY as possible after the 'get ready' prompt.

Ask the experimenter any questions now. Please put on the headphones.

You will get one practice trial. Press 'enter/return' when you are ready to start the practice.","Remember to type as QUICKLY and ACCURATELY as you can after the 'get ready' prompt.

Ask the experimenter any questions now. Please put on the headphones.

You will get one practice trial. Press 'enter/return' when you are ready to start the practice.",video&audio/Example_AOMI_total.png,1.8,0.7,None,None,None,None,None,oppose,ghetto,6.5,7.5,video&audio/sentence3_TT_3X.mp4,video&audio/jargon_TT_3X.mp4,frugal,jargon,None,,,,,,,,,,,,,,,,,,,,,,,,,,,0,26,26,2,,,,,,,,,,,,,,,,,,,,,,,,,,,,,,,,,,,,,,,,,,,,,,,,,None,,,None, frugal,"['f', 'r', 'u', 'g', 'a', 'l', 'return']","[0.46967120000044815, 0.5253857000025164, 0.7413693000016792, 1.0054354000021704, 1.1572383000020636, 1.4693532000019331, 1.8132419000030495]",,,,,,,,,,,,,,,,,,,,,,,,,13,001,H,2023_Feb_08_1444,student_TT_local,2021.1.4,60.14925435970452,
,None,None,None,None,None,None,None,None,None,None,joiner,apathy,6.5,7.5,video&audio/sentence6_TT_3X.mp4,video&audio/revolt_TT_3X.mp4,virile,revolt,None,,,,,,,,,,,,,,,,,,,,,,,,,,,0,27,27,5,,,,,,,,,,,,,,,,,,,,,,,,,,,,,,,,,,,,,,,,,,,,,,,,,None,,,None, virile,"['v', 'i', 'r', 'i', 'l', 'e', 'pound', 'backspace', 'return']","[1.0495957999992243, 1.1775904999994964, 1.4260859999994864, 1.570499800000107, 1.7939358999974502, 2.0176078000004054, 2.425788199998351, 3.274013999998715, 3.4815904999995837]",,,,,,,,,,,,,,,,,,,,,,,,,13,001,H,2023_Feb_08_1444,student_TT_local,2021.1.4,60.14925435970452,
,"While you watch the video, imagine yourself typing the word on the screen, like how you did in the imagery practice. While you watch the video and imagine this, rest your hands on your keyboard but DO NOT type until AFTER you see the typing prompt.

Press 'enter/return' to go to the next page.","While watching the video, imagine yourself typing the word on the screen, like how you did in the imagery practice. While you watch the video and imagine this, rest your hands on your keyboard but DO NOT type until AFTER you see the typing prompt.

Press 'enter/return' to go to the next page.",video&audio/Example_AOMI_imagine.png,1.6,1,butter,6.5,7.5,video&audio/amount_TT_3X.mp4,video&audio/butter_TT_3X.mp4,metric,eatery,6.5,7.5,video&audio/sentence2_TT_3X.mp4,video&audio/plight_TT_3X.mp4,ascend,plight,2 = AOMIspec,,,,,,,,,,,,,,,,,,,,,,,,,,,0,28,28,1,,,,,,,,,,,,,,,,,,,,,,,,,,,,,,,,,,,,,,,,,,,,,,,,,None,,,None, ascend,"['a', 's', 'c', 'e', 'n', 'd', 'return']","[0.5933208000024024, 0.7775887999996485, 1.0417091000017535, 1.6098895000031916, 2.2898515000015323, 2.842084400002932, 3.1141583999997238]",,,,,,,,,,,,,,,,,,,,,,,,,13,001,H,2023_Feb_08_1444,student_TT_local,2021.1.4,60.14925435970452,
,None,None,None,None,None,None,None,None,None,None,trench,ethnic,6.5,7.5,video&audio/Sentence4_touch_edited.mp4,video&audio/goblet_TT_3X.mp4,botany,goblet,None,,,,,,,,,,,,,,,,,,,,,,,,,,,0,29,29,27,,,,,,,,,,,,,,,,,,,,,,,,,,,,,,,,,,,,,,,,,,,,,,,,,None,,,None, botany,"['b', 'o', 't', 'a', 'n', 'y', 'return']","[0.8539101999995182, 1.1657288000023982, 1.4858749000013631, 1.5896068000001833, 1.8856556999999157, 2.10161270000026, 2.4623877000012726]",,,,,,,,,,,,,,,,,,,,,,,,,13,001,H,2023_Feb_08_1444,student_TT_local,2021.1.4,60.14925435970452,
,,,,,,,,,,,,,,,,,,,,typingRatingScale.png,"How would you rate your typing performance in the previous section?

Press a number on your keyboard according to the rating scale below to give your answer. Your first answer will be accepted.",,,,,,,,,,,,,,,,,,,,,,,,,,,,,0,0,0,0,,,,,,,,,,,,,,,,,,,,,,,,,,,,,,,,,,,,,,,,,,,,,,,,,,,,,['3'],[5.881132400001661],,,,,,,,,,,,,,,,,,,,,,13,001,H,2023_Feb_08_1444,student_TT_local,2021.1.4,60.14925435970452,
,,,,,,,,,,,,,,,,,,,,visualImageryScale.png,"While imagining yourself typing, how clear was your visual image?

Press a number on your keyboard according to the rating scale below to give your answer. Your first answer will be accepted.",,,,,,,,,,,,,,,,,,,,,,,,,,,,,0,1,1,1,,,,,,,,,,,,,,,,,,,,,,,,,,,,,,,,,,,,,,,,,,,,,,,,,,,,,['3'],[6.161429900002986],,,,,,,,,,,,,,,,,,,,,,13,001,H,2023_Feb_08_1444,student_TT_local,2021.1.4,60.14925435970452,
,,,,,,,,,,,,,,,,,,,,kinestheticImageryScale.png,"While imagining yourself typing, how intense were the sensations associated with the imagined movement?

Press a number on your keyboard according to the rating scale below to give your answer. Your first answer will be accepted.",,,,,,,,,,,,,,,,,,,,,,,,,,,,,0,2,2,2,,,,,,,,,,,,,,,,,,,,,,,,,,,,,,,,,,,,,,,,,,,,,,,,,,,,,['4'],[5.535803800001304],,,,,,,,,,,,,,,,,,,,,,13,001,H,2023_Feb_08_1444,student_TT_local,2021.1.4,60.14925435970452,
,None,None,None,None,None,None,None,None,None,None,feudal,matron,19.5,20.5,video&audio/Sentence3_touch_edited.mp4,video&audio/legion_touch_edited.mp4,subdue,legion,None,,,,,,,,,,,,,,,,,,,,,,,,,,,,,,,,,,,,,,,,,,,0,0,0,26,,,,,,,,,,,,,,,,,,,,,,,,,,,,,,,,,,,,,,,,,,,2939.9857123,2946.4963828,None, butter,"['b', 'u', 't', 't', 'e', 'r', 'return']","[1.029123600001185, 1.2860875000005763, 1.757137500000681, 1.8933027000020957, 2.1254300000000512, 2.261144600000989, 2.893297300000995]",2997.2911729000007,3016.802059999998,None, matron,"['m', 'a', 't', 'r', 'o', 'n', 'return']","[1.108091099999001, 1.2600139999995008, 1.6357006999969599, 1.8437123999974574, 2.1876003999968816, 2.4355790999979945, 3.2676258999999845]",,,,,,,,,,13,001,H,2023_Feb_08_1444,student_TT_local,2021.1.4,60.14925435970452,
,None,None,None,None,None,None,None,None,None,None,mangle,warble,19.5,20.5,video&audio/Sentence1_touch_edited.mp4,video&audio/fodder_touch_edited.mp4,devise,fodder,None,,,,,,,,,,,,,,,,,,,,,,,,,,,,,,,,,,,,,,,,,,,0,1,1,24,,,,,,,,,,,,,,,,,,,,,,,,,,,,,,,,,,,,,,,,,,,,,,,,,3021.114666999998,3040.6281449999988,None, warble,"['w', 'a', 'r', 'b', 'l', 'e', 'return']","[1.2293797000020277, 1.3562323000005563, 2.2764380000007804, 2.6123039000012795, 3.0763604000021587, 3.2366522000011173, 3.8122436000012385]",,,,,,,,,,13,001,H,2023_Feb_08_1444,student_TT_local,2021.1.4,60.14925435970452,
,None,None,None,None,None,None,None,None,None,None,hamlet,shroud,6.5,7.5,video&audio/sentence4_TT_3X.mp4,video&audio/sherry_TT_3X.mp4,jackal,sherry,None,,,,,,,,,,,,,,,,,,,,,,,,,,,,,,,,,,,,,,,,,,,0,2,2,9,,,,,,,,,,,,,,,,,,,,,,,,,,,,,,,,,,,,,,,,,,,,,,,,,3045.4838782000006,3051.9911508000005,None, shroud,"['s', 'h', 'r', 'o', 'u', 'd', 'return']","[1.1225711000006413, 1.2667577000029269, 2.098381400002836, 2.2746321000013268, 2.6903740000016114, 2.8504867000010563, 3.274702900002012]",,,,,,,,,,13,001,H,2023_Feb_08_1444,student_TT_local,2021.1.4,60.14925435970452,
,None,None,None,None,None,None,None,None,None,None,befall,ration,6.5,7.5,video&audio/sentence3_TT_3X.mp4,video&audio/parole_TT_3X.mp4,solemn,parole,None,,,,,,,,,,,,,,,,,,,,,,,,,,,,,,,,,,,,,,,,,,,0,3,3,8,,,,,,,,,,,,,,,,,,,,,,,,,,,,,,,,,,,,,,,,,,,,,,,,,3056.303445999998,3062.8170618999975,None, ration,"['r', 'a', 't', 'o', 'n', 'return']","[0.9517823999995016, 1.0478186000000278, 1.2150905000016792, 1.8473143000010168, 2.047490100001596, 2.6551991000014823]",,,,,,,,,,13,001,H,2023_Feb_08_1444,student_TT_local,2021.1.4,60.14925435970452,
,None,None,None,None,None,None,None,None,None,None,caviar,shrill,19.5,20.5,video&audio/Sentence3_touch_edited.mp4,video&audio/brazen_touch_edited.mp4,piston,brazen,None,,,,,,,,,,,,,,,,,,,,,,,,,,,,,,,,,,,,,,,,,,,0,4,4,20,,,,,,,,,,,,,,,,,,,,,,,,,,,,,,,,,,,,,,,,,,,,,,,,,3066.5298368999975,3086.042780399999,None, shrill,"['s', 'h', 'r', 'i', 'l', 'l', 'return']","[0.9062025999992329, 1.0735353999989456, 1.305520100002468, 1.5371105000012903, 2.113591400000587, 2.2814830999996047, 2.9447347000023]",,,,,,,,,,13,001,H,2023_Feb_08_1444,student_TT_local,2021.1.4,60.14925435970452,
,None,None,None,None,None,None,None,None,None,None,primal,entail,6.5,7.5,video&audio/sentence5_TT_3X.mp4,video&audio/novice_TT_3X.mp4,parcel,novice,None,,,,,,,,,,,,,,,,,,,,,,,,,,,,,,,,,,,,,,,,,,,0,5,5,4,,,,,,,,,,,,,,,,,,,,,,,,,,,,,,,,,,,,,,,,,,,,,,,,,3090.0417079,3096.5585721999996,None, entail,"['e', 'n', 't', 'a', 'i', 'l', 'return']","[0.8956164999981411, 1.056406399999105, 1.3286717000009958, 1.4636915999981284, 1.703502299998945, 1.9763273999997182, 2.376516399999673]",,,,,,,,,,13,001,H,2023_Feb_08_1444,student_TT_local,2021.1.4,60.14925435970452,
,None,None,None,None,None,None,None,None,None,None,hearth,herbal,19.5,20.5,video&audio/sentence3_TT_3X.mp4,video&audio/deduct_touch_edited.mp4,hippie,deduct,None,,,,,,,,,,,,,,,,,,,,,,,,,,,,,,,,,,,,,,,,,,,0,6,6,14,,,,,,,,,,,,,,,,,,,,,,,,,,,,,,,,,,,,,,,,,,,,,,,,,3099.961028499998,3119.4711212,None, herbal,"['h', 'e', 'r', 'b', 'a', 'l', 'return']","[0.7371529000010923, 0.8410278000010294, 1.001592000000528, 1.2015428000013344, 1.3692638000029547, 1.6178170000021055, 1.9531268999999156]",,,,,,,,,,13,001,H,2023_Feb_08_1444,student_TT_local,2021.1.4,60.14925435970452,
,None,None,None,None,None,None,None,None,None,None,parish,gullet,19.5,20.5,video&audio/Sentence5_touch_edited.mp4,video&audio/manure_touch_edited.mp4,picket,manure,None,,,,,,,,,,,,,,,,,,,,,,,,,,,,,,,,,,,,,,,,,,,0,7,7,28,,,,,,,,,,,,,,,,,,,,,,,,,,,,,,,,,,,,,,,,,,,,,,,,,3122.482129199998,3142.001159399999,None, gullet,"['g', 'u', 'l', 'l', 'e', 't', 'return']","[0.9680861999986519, 1.1840997999970568, 1.9206074999965494, 2.0560620999967796, 2.4647026999991795, 2.616140099999029, 3.1520096999993257]",,,,,,,,,,13,001,H,2023_Feb_08_1444,student_TT_local,2021.1.4,60.14925435970452,
,None,None,None,None,None,None,None,None,None,None,campus,allure,6.5,7.5,video&audio/Sentence6_touch_edited.mp4,video&audio/binder_TT_3X.mp4,forage,binder,None,,,,,,,,,,,,,,,,,,,,,,,,,,,,,,,,,,,,,,,,,,,0,8,8,29,,,,,,,,,,,,,,,,,,,,,,,,,,,,,,,,,,,,,,,,,,,,,,,,,3146.197769300001,3152.7177239999983,None, allure,"['a', 'l', 'l', 'u', 'r', 'e', 'return']","[0.8135107999987667, 1.1658217999975022, 1.2935670999977447, 1.5504098999990674, 1.7269113000002108, 1.8296377000006032, 2.8791173999998136]",,,,,,,,,,13,001,H,2023_Feb_08_1444,student_TT_local,2021.1.4,60.14925435970452,
,"While you watch the video, imagine yourself typing the word on the screen, like how you did in the imagery practice. While you watch the video and imagine this, rest your hands on your keyboard but DO NOT type until AFTER you see the typing prompt.

Press 'enter/return' to go to the next page.","While watching the video, imagine yourself typing the word on the screen, like how you did in the imagery practice. While you watch the video and imagine this, rest your hands on your keyboard but DO NOT type until AFTER you see the typing prompt.

Press 'enter/return' to go to the next page.",video&audio/Example_AOMI_imagine.png,1.6,1,butter,6.5,7.5,video&audio/amount_TT_3X.mp4,video&audio/butter_TT_3X.mp4,metric,eatery,6.5,7.5,video&audio/sentence2_TT_3X.mp4,video&audio/plight_TT_3X.mp4,ascend,plight,2 = AOMIspec,,,,,,,,,,,,,,,,,,,,,,,,,,,,,,,,,,,,,,,,,,,0,9,9,1,,,,,,,,,,,,,,,,,,,,,,,,,,,,,,,,,,,,,,,,,,,,,,,,,3156.6268181999985,3163.1532921,None, eatery,"['e', 'a', 't', 'e', 'r', 'y', 'return']","[0.9048829999992449, 1.009943099998054, 1.2258785999983957, 1.7042989000001398, 1.8243191999972623, 2.2651975999979186, 2.6727761999973154]",,,,,,,,,,13,001,H,2023_Feb_08_1444,student_TT_local,2021.1.4,60.14925435970452,
,None,None,None,None,None,None,None,None,None,None,patent,defame,6.5,7.5,video&audio/sentence6_TT_3X.mp4,video&audio/quarry_TT_3X.mp4,covert,quarry,None,,,,,,,,,,,,,,,,,,,,,,,,,,,,,,,,,,,,,,,,,,,0,10,10,11,,,,,,,,,,,,,,,,,,,,,,,,,,,,,,,,,,,,,,,,,,,,,,,,,3228.775690999999,3235.2917345999995,None, defame,"['d', 'e', 'f', 'r', 'backspace', 'a', 'm', 'e', 'return']","[1.0735058999998728, 1.1540410999987216, 1.4572637999990548, 1.5457401999992726, 2.4972420999984024, 3.385232000000542, 3.657782700000098, 3.7695996000002197, 4.193650599998364]",,,,,,,,,,13,001,H,2023_Feb_08_1444,student_TT_local,2021.1.4,60.14925435970452,
,None,None,None,None,None,None,None,None,None,None,output,uphold,19.5,20.5,video&audio/Sentence1_touch_edited.mp4,video&audio/pursue_touch_edited.mp4,debtor,pursue,None,,,,,,,,,,,,,,,,,,,,,,,,,,,,,,,,,,,,,,,,,,,0,11,11,18,,,,,,,,,,,,,,,,,,,,,,,,,,,,,,,,,,,,,,,,,,,,,,,,,3240.5060589999994,3260.0134089999992,None, uphold,"['u', 'p', 'h', 'o', 'l', 'd', 'return']","[1.23086289999992, 1.61490860000049, 1.9188929999982065, 2.230765500000416, 2.415810700000293, 2.559292199999618, 3.886824199998955]",,,,,,,,,,13,001,H,2023_Feb_08_1444,student_TT_local,2021.1.4,60.14925435970452,
,"Remember to type as QUICKLY and ACCURATELY as possible after the 'get ready' prompt.

Ask the experimenter any questions now. Please put on the headphones.

You will get one practice trial. Press 'enter/return' when you are ready to start the practice.","Remember to type as QUICKLY and ACCURATELY as you can after the 'get ready' prompt.

Ask the experimenter any questions now. Please put on the headphones.

You will get one practice trial. Press 'enter/return' when you are ready to start the practice.",video&audio/Example_AOMI_total.png,1.8,0.7,None,None,None,None,None,oppose,ghetto,6.5,7.5,video&audio/sentence3_TT_3X.mp4,video&audio/jargon_TT_3X.mp4,frugal,jargon,None,,,,,,,,,,,,,,,,,,,,,,,,,,,,,,,,,,,,,,,,,,,0,12,12,2,,,,,,,,,,,,,,,,,,,,,,,,,,,,,,,,,,,,,,,,,,,,,,,,,3264.9540788999984,3271.462399,None, ghetto,"['h', 'backspace', 'g', 'h', 'r', 'backspace', 'e', 't', 't', 'o', 'return']","[0.9214166999990994, 1.5615921999997227, 1.7700083999989147, 1.9778676999994786, 2.1215102999994997, 2.873509199998807, 2.953864399998565, 3.345358700000361, 3.497447000001557, 3.6183864999984507, 4.249227399999654]",,,,,,,,,,13,001,H,2023_Feb_08_1444,student_TT_local,2021.1.4,60.14925435970452,
,None,None,None,None,None,None,None,None,None,None,zephyr,fusion,6.5,7.5,video&audio/sentence5_TT_3X.mp4,video&audio/critic_TT_3X.mp4,obsess,critic,None,,,,,,,,,,,,,,,,,,,,,,,,,,,,,,,,,,,,,,,,,,,0,13,13,10,,,,,,,,,,,,,,,,,,,,,,,,,,,,,,,,,,,,,,,,,,,,,,,,,3276.7701030999997,3283.2954286999993,None, fusion,"['f', 'u', 's', 'i', 'o', 'n', 'return']","[1.3146526999989874, 1.6741742999984126, 1.8026262999992468, 1.9624827000006917, 2.122178099998564, 2.2903708000012557, 2.8030914000009943]",,,,,,,,,,13,001,H,2023_Feb_08_1444,student_TT_local,2021.1.4,60.14925435970452,
,None,None,None,None,None,None,None,None,None,None,meddle,divert,19.5,20.5,video&audio/Sentence2_touch_edited.mp4,video&audio/upkeep_touch_edited.mp4,kipper,upkeep,None,,,,,,,,,,,,,,,,,,,,,,,,,,,,,,,,,,,,,,,,,,,0,14,14,25,,,,,,,,,,,,,,,,,,,,,,,,,,,,,,,,,,,,,,,,,,,,,,,,,3287.124239599998,3306.6325564,None, divert,"['d', 'i', 'v', 'e', 'r', 't', 'return']","[1.0164292000008572, 1.168283099999826, 1.4561570000005304, 1.6001914000007673, 1.8084186000014597, 2.080610600001819, 2.2640133000022615]",,,,,,,,,,13,001,H,2023_Feb_08_1444,student_TT_local,2021.1.4,60.14925435970452,
,None,None,None,None,None,None,None,None,None,None,clergy,portal,19.5,20.5,video&audio/Sentence6_touch_edited.mp4,video&audio/murmur_touch_edited.mp4,ritual,murmur,None,,,,,,,,,,,,,,,,,,,,,,,,,,,,,,,,,,,,,,,,,,,0,15,15,17,,,,,,,,,,,,,,,,,,,,,,,,,,,,,,,,,,,,,,,,,,,,,,,,,3309.9483470999985,3329.4537390000005,None, portal,"['p', 'o', 'r', 't', 'a', 'l', 'return']","[0.7667695999989519, 0.9587810999983049, 1.2780112000000372, 1.4308365999968373, 1.5902287999997498, 1.9099550999999337, 2.334831000000122]",,,,,,,,,,13,001,H,2023_Feb_08_1444,student_TT_local,2021.1.4,60.14925435970452,
,None,None,None,None,None,None,None,None,None,None,cobble,export,19.5,20.5,video&audio/Sentence2_touch_edited.mp4,video&audio/savant_touch_edited.mp4,cervix,savant,None,,,,,,,,,,,,,,,,,,,,,,,,,,,,,,,,,,,,,,,,,,,0,16,16,19,,,,,,,,,,,,,,,,,,,,,,,,,,,,,,,,,,,,,,,,,,,,,,,,,3332.817237899999,3352.3243139000006,None, export,"['e', 'x', 'p', 'o', 'r', 't', 'return']","[0.8142468000005465, 1.0938597999993362, 1.3427902000003087, 1.4628179000028467, 1.742730300000403, 1.9099693000025582, 2.3503457000006165]",,,,,,,,,,13,001,H,2023_Feb_08_1444,student_TT_local,2021.1.4,60.14925435970452,
,None,None,None,None,None,None,None,None,None,None,trench,ethnic,6.5,7.5,video&audio/Sentence4_touch_edited.mp4,video&audio/goblet_TT_3X.mp4,botany,goblet,None,,,,,,,,,,,,,,,,,,,,,,,,,,,,,,,,,,,,,,,,,,,0,17,17,27,,,,,,,,,,,,,,,,,,,,,,,,,,,,,,,,,,,,,,,,,,,,,,,,,3355.7077105999997,3362.210527899999,None, ethnic,"['e', 't', 'c', 'backspace', 'h', 'n', 'i', 'c', 'return']","[1.4760464999999385, 1.6521438000017952, 1.8365892000001622, 3.756074400000216, 4.0763154000014765, 4.244055600000138, 4.556051200001093, 4.684519800000999, 5.436730299999908]",,,,,,,,,,13,001,H,2023_Feb_08_1444,student_TT_local,2021.1.4,60.14925435970452,
,None,None,None,None,None,None,None,None,None,None,girdle,linear,19.5,20.5,video&audio/Sentence6_touch_edited.mp4,video&audio/impose_touch_edited.mp4,belfry,impose,None,,,,,,,,,,,,,,,,,,,,,,,,,,,,,,,,,,,,,,,,,,,0,18,18,23,,,,,,,,,,,,,,,,,,,,,,,,,,,,,,,,,,,,,,,,,,,,,,,,,3368.7108415000002,3388.212564199999,None, linear,"['l', 'i', 'n', 'e', 'a', 'r', 'return']","[0.9250193999978364, 1.1245533999972395, 1.3648052999997162, 1.6764141999992717, 2.0043046999999206, 2.1331799999970826, 2.581185600000026]",,,,,,,,,,13,001,H,2023_Feb_08_1444,student_TT_local,2021.1.4,60.14925435970452,
,None,None,None,None,None,None,None,None,None,None,tandem,origin,19.5,20.5,video&audio/Sentence4_touch_edited.mp4,video&audio/coerce_touch_edited.mp4,falter,coerce,None,,,,,,,,,,,,,,,,,,,,,,,,,,,,,,,,,,,,,,,,,,,0,19,19,15,,,,,,,,,,,,,,,,,,,,,,,,,,,,,,,,,,,,,,,,,,,,,,,,,3391.841148899999,3411.355063799998,None, origin,"['o', 'r', 'i', 'g', 'i', 'n', 'return']","[0.6830010000012408, 0.8582520000018121, 0.9860537000022305, 1.2505521000020963, 1.3628754999990633, 1.5382457000014256, 2.0821595000015805]",,,,,,,,,,13,001,H,2023_Feb_08_1444,student_TT_local,2021.1.4,60.14925435970452,
,None,None,None,None,None,None,None,None,None,None,shrewd,revoke,6.5,7.5,video&audio/sentence1_TT_3X.mp4,video&audio/mirage_TT_3X.mp4,malady,mirage,None,,,,,,,,,,,,,,,,,,,,,,,,,,,,,,,,,,,,,,,,,,,0,20,20,6,,,,,,,,,,,,,,,,,,,,,,,,,,,,,,,,,,,,,,,,,,,,,,,,,3649.848076800001,3656.3493581999974,None, revoke,"['r', 'e', 'v', 'o', 'k', 'e', 'return']","[0.7701502999989316, 0.8491003999988607, 1.0251614000007976, 1.441179600002215, 1.6263060999990557, 1.7610382000020763, 2.4170407999990857]",,,,,,,,,,13,001,H,2023_Feb_08_1444,student_TT_local,2021.1.4,60.14925435970452,
,None,None,None,None,None,None,None,None,None,None,fungal,mucous,19.5,20.5,video&audio/Sentence5_touch_edited.mp4,video&audio/musket_touch_edited.mp4,subtle,musket,None,,,,,,,,,,,,,,,,,,,,,,,,,,,,,,,,,,,,,,,,,,,0,21,21,22,,,,,,,,,,,,,,,,,,,,,,,,,,,,,,,,,,,,,,,,,,,,,,,,,3659.840090999998,3679.3445307999973,None, mucous,"['m', 'u', 'c', 'o', 'u', 's', 'return']","[0.91582660000131, 1.1160382999987633, 1.7714698999989196, 2.307630800001789, 2.4921725999993214, 2.868147699999099, 3.1399859999983164]",,,,,,,,,,13,001,H,2023_Feb_08_1444,student_TT_local,2021.1.4,60.14925435970452,
,None,None,None,None,None,None,None,None,None,None,joiner,apathy,6.5,7.5,video&audio/sentence6_TT_3X.mp4,video&audio/revolt_TT_3X.mp4,virile,revolt,None,,,,,,,,,,,,,,,,,,,,,,,,,,,,,,,,,,,,,,,,,,,0,22,22,5,,,,,,,,,,,,,,,,,,,,,,,,,,,,,,,,,,,,,,,,,,,,,,,,,3683.5300639999987,3690.036665399999,None, apathy,"['a', 'p', 'a', 't', 'h', 'y', 'return']","[0.9052249999986088, 1.073620999999548, 1.1294806000005337, 1.4653747999982443, 1.5772190999996383, 1.7379048999973747, 2.1133484999991197]",,,,,,,,,,13,001,H,2023_Feb_08_1444,student_TT_local,2021.1.4,60.14925435970452,
,None,None,None,None,None,None,None,None,None,None,septic,ordain,19.5,20.5,video&audio/sentence2_TT_3X.mp4,video&audio/potent_touch_edited.mp4,neural,potent,None,,,,,,,,,,,,,,,,,,,,,,,,,,,,,,,,,,,,,,,,,,,0,23,23,13,,,,,,,,,,,,,,,,,,,,,,,,,,,,,,,,,,,,,,,,,,,,,,,,,3693.1880966999997,3712.696711599998,None, ordain,"['o', 'r', 'd', 'a', 'i', 'n', 'return']","[0.9119190000019444, 1.2958759000030113, 1.4794363000000885, 1.5755205000023125, 2.3677756000033696, 2.519422700002906, 3.1199952000024496]",,,,,,,,,,13,001,H,2023_Feb_08_1444,student_TT_local,2021.1.4,60.14925435970452,
,None,None,None,None,None,None,None,None,None,None,delude,galley,6.5,7.5,video&audio/sentence2_TT_3X.mp4,video&audio/strife_TT_3X.mp4,tariff,strife,None,,,,,,,,,,,,,,,,,,,,,,,,,,,,,,,,,,,,,,,,,,,0,24,24,7,,,,,,,,,,,,,,,,,,,,,,,,,,,,,,,,,,,,,,,,,,,,,,,,,3716.8501718000007,3723.3684316,None, galley,"['g', 'a', 'l', 'l', 'e', 'y', 'return']","[1.0793809999995574, 1.1832477999996627, 1.775405199998204, 1.9034728000005998, 2.903625599999941, 3.59131879999768, 4.015871999999945]",,,,,,,,,,13,001,H,2023_Feb_08_1444,student_TT_local,2021.1.4,60.14925435970452,
,None,None,None,None,None,None,None,None,None,None,jailer,nettle,19.5,20.5,video&audio/Sentence5_touch_edited.mp4,video&audio/convoy_touch_edited.mp4,plasma,convoy,None,,,,,,,,,,,,,,,,,,,,,,,,,,,,,,,,,,,,,,,,,,,0,25,25,16,,,,,,,,,,,,,,,,,,,,,,,,,,,,,,,,,,,,,,,,,,,,,,,,,3728.4170171000005,3747.9392387000007,None, nettle,"['n', 'e', 't', 't', 'l', 'e', 'return']","[0.5320524000017031, 0.6436940000021423, 1.1393963000009535, 1.2669901000008394, 1.762915499999508, 1.8921265999997559, 2.1150295000006736]",,,,,,,,,,13,001,H,2023_Feb_08_1444,student_TT_local,2021.1.4,60.14925435970452,
,None,None,None,None,None,None,None,None,None,None,induce,mussel,19.5,20.5,video&audio/Sentence4_touch_edited.mp4,video&audio/satire_touch_edited.mp4,cortex,satire,None,,,,,,,,,,,,,,,,,,,,,,,,,,,,,,,,,,,,,,,,,,,0,26,26,21,,,,,,,,,,,,,,,,,,,,,,,,,,,,,,,,,,,,,,,,,,,,,,,,,3751.0871603999985,3770.594245199998,None, mussle,"['m', 'u', 's', 's', 'l', 'e', 'return']","[0.610298600000533, 1.049749099998735, 1.3540898999999627, 1.4813014999999723, 1.625262699999439, 1.7295903999984148, 2.7052330000005895]",,,,,,,,,,13,001,H,2023_Feb_08_1444,student_TT_local,2021.1.4,60.14925435970452,
,None,None,None,None,None,None,None,None,None,None,oblige,mystic,6.5,7.5,video&audio/sentence4_TT_3X.mp4,video&audio/infirm_TT_3X.mp4,pulpit,infirm,None,,,,,,,,,,,,,,,,,,,,,,,,,,,,,,,,,,,,,,,,,,,0,27,27,3,,,,,,,,,,,,,,,,,,,,,,,,,,,,,,,,,,,,,,,,,,,,,,,,,3774.359100999998,3780.8595399000005,None, mystic,"['m', 'y', 's', 't', 'i', 'c', 'return']","[1.0408238999989408, 1.6407813000005262, 2.1606639999990875, 2.2566335999981675, 2.632845299998735, 2.7530717000008735, 3.3453579999986687]",,,,,,,,,,13,001,H,2023_Feb_08_1444,student_TT_local,2021.1.4,60.14925435970452,
,None,None,None,None,None,None,None,None,None,None,innate,tamper,6.5,7.5,video&audio/sentence1_TT_3X.mp4,video&audio/sonnet_TT_3X.mp4,confer,sonnet,None,,,,,,,,,,,,,,,,,,,,,,,,,,,,,,,,,,,,,,,,,,,0,28,28,12,,,,,,,,,,,,,,,,,,,,,,,,,,,,,,,,,,,,,,,,,,,,,,,,,3785.2508180000004,3791.7578385999986,None, tamper,"['t', 'a', 'm', 'p', 'e', 'r', 'return']","[0.7423299000001862, 0.8871906999993371, 1.1831617999996524, 1.470028399999137, 1.6224957999984326, 1.758352400000149, 2.430615900000703]",,,,,,,,,,13,001,H,2023_Feb_08_1444,student_TT_local,2021.1.4,60.14925435970452,
,"This is Section 2.

In this section, your task will be the same as before - that is, to type the word you see on the screen AFTER the typing prompt. However, rather than just seeing the word before typing, you will also see a video of someone typing different words to what you will need to type at different speeds. 

Press 'enter/return' to go to the next page.","This is Section 4. 

In this section, your task will be the same as before - that is, to type the word you see on the screen after the typing prompt. You will see a video again, like in Section 2, only this time, the video will show someone the same word that you must type at different speeds. 

Press 'enter/return' to go to the next page.",video&audio/Example_AOMI_layout.png,1.6,0.6,afford,19.5,20.5,video&audio/amount_touch_edited.mp4,video&audio/afford_touch_edited.mp4,hinder,breach,6.5,7.5,video&audio/sentence1_TT_3X.mp4,video&audio/vanity_TT_3X.mp4,matrix,vanity,1 = AOMIgen,,,,,,,,,,,,,,,,,,,,,,,,,,,,,,,,,,,,,,,,,,,0,29,29,0,,,,,,,,,,,,,,,,,,,,,,,,,,,,,,,,,,,,,,,,,,,,,,,,,3795.2326360000006,3801.7585851999975,None, breach,"['b', 'r', 'e', 'a', 'c', 'h', 'return']","[0.6710132000007434, 1.022818900000857, 1.3355030000020633, 1.8067780999990646, 2.1828793000022415, 2.3107442000000447, 2.719561400001112]",,,,,,,,,,13,001,H,2023_Feb_08_1444,student_TT_local,2021.1.4,60.14925435970452,
,,,,,,,,,,,,,,,,,,,,typingRatingScale.png,"How would you rate your typing performance in the previous section?

Press a number on your keyboard according to the rating scale below to give your answer. Your first answer will be accepted.",,,,,,,,,,,,,,,,,,,,,,,,,,,,,,,,,,,,,,,,,,,,,0,0,0,0,,,,,,,,,,,,,,,,,,,,,,,,,,,,,,,,,,,,,,,,,,,,,,,,,,,['3'],[7.764379200001713],,,,,,,,13,001,H,2023_Feb_08_1444,student_TT_local,2021.1.4,60.14925435970452,
,,,,,,,,,,,,,,,,,,,,imageryCheckScale.png,"In the previous section did you imagine yourself typing?

Press a number on your keyboard according to the rating scale below to give your answer. Your first answer will be accepted.",,,,,,,,,,,,,,,,,,,,,,,,,,,,,,,,,,,,,,,,,,,,,0,1,1,1,,,,,,,,,,,,,,,,,,,,,,,,,,,,,,,,,,,,,,,,,,,,,,,,,,,['2'],[6.478396200000134],,,,,,,,13,001,H,2023_Feb_08_1444,student_TT_local,2021.1.4,60.14925435970452,
,None,None,None,None,None,None,None,None,None,None,primal,entail,6.5,7.5,video&audio/sentence5_TT_3X.mp4,video&audio/novice_TT_3X.mp4,parcel,novice,None,,,,,,,,,,,,,,,,,,,,,,,,,,,,,,,,,,,,,,,,,,,,,,,,,,,,,,,,,,,0,0,0,4,,,,,,,,,,,,,,,,,None,"['b', 'u', 't', 't', 'e', 'r', 'return']","[0.6616350000003877, 1.0378105000017968, 1.421288600002299, 1.5177270000021963, 1.6772685000032652, 1.7976697000012791, 2.581326999999874]",,,,,,,,,,,,,,,,,,,,,,None,None, novice,"['n', 'o', 'v', 'i', 'c', 'e', 'return']","[0.7717905999998038, 1.043578400000115, 1.4194000999996206, 1.6833915999995952, 1.987269600002037, 2.0987409000008483, 2.346981599999708]",,,13,001,H,2023_Feb_08_1444,student_TT_local,2021.1.4,60.14925435970452,
,None,None,None,None,None,None,None,None,None,None,feudal,matron,19.5,20.5,video&audio/Sentence3_touch_edited.mp4,video&audio/legion_touch_edited.mp4,subdue,legion,None,,,,,,,,,,,,,,,,,,,,,,,,,,,,,,,,,,,,,,,,,,,,,,,,,,,,,,,,,,,0,1,1,26,,,,,,,,,,,,,,,,,None,,,,,,,,,,,,,,,,,,,,,,,,,None, legion,"['l', 'e', 'g', 'i', 'o', 'n', 'return']","[0.8350785000002361, 0.9476820999989286, 1.2115852999995695, 1.5230417999991914, 1.7075527999986662, 1.8990345999991405, 2.5070768000005046]",,,13,001,H,2023_Feb_08_1444,student_TT_local,2021.1.4,60.14925435970452,
,None,None,None,None,None,None,None,None,None,None,girdle,linear,19.5,20.5,video&audio/Sentence6_touch_edited.mp4,video&audio/impose_touch_edited.mp4,belfry,impose,None,,,,,,,,,,,,,,,,,,,,,,,,,,,,,,,,,,,,,,,,,,,,,,,,,,,,,,,,,,,0,2,2,23,,,,,,,,,,,,,,,,,None,,,,,,,,,,,,,,,,,,,,,,,,,None, impose,"['i', 'm', 'p', 'o', 's', 'e', 'return']","[0.7352702999996836, 0.9758110000002489, 1.3597368000009737, 1.5358092999995279, 1.7753029999985301, 1.9831508999996004, 2.7120023999996192]",,,13,001,H,2023_Feb_08_1444,student_TT_local,2021.1.4,60.14925435970452,
,None,None,None,None,None,None,None,None,None,None,cobble,export,19.5,20.5,video&audio/Sentence2_touch_edited.mp4,video&audio/savant_touch_edited.mp4,cervix,savant,None,,,,,,,,,,,,,,,,,,,,,,,,,,,,,,,,,,,,,,,,,,,,,,,,,,,,,,,,,,,0,3,3,19,,,,,,,,,,,,,,,,,None,,,,,,,,,,,,,,,,,,,,,,,,,None, savant,"['s', 'a', 'v', 'a', 'n', 't', 'return']","[1.6327988000011828, 1.7046845000004396, 1.9296512000000803, 2.0006480000010924, 2.2811442999991414, 2.601005399999849, 3.1206625000013446]",,,13,001,H,2023_Feb_08_1444,student_TT_local,2021.1.4,60.14925435970452,
,None,None,None,None,None,None,None,None,None,None,oblige,mystic,6.5,7.5,video&audio/sentence4_TT_3X.mp4,video&audio/infirm_TT_3X.mp4,pulpit,infirm,None,,,,,,,,,,,,,,,,,,,,,,,,,,,,,,,,,,,,,,,,,,,,,,,,,,,,,,,,,,,0,4,4,3,,,,,,,,,,,,,,,,,None,,,,,,,,,,,,,,,,,,,,,,,,,None, infirm,"['o', 'backspace', 'i', 'n', 'f', 'i', 'r', 'm', 'return']","[0.7229990999985603, 1.3390345000007073, 1.6902116000019305, 1.874390900000435, 2.170564700001705, 2.2984280999990006, 2.4021993999995175, 2.570580499999778, 3.3143597999987833]",,,13,001,H,2023_Feb_08_1444,student_TT_local,2021.1.4,60.14925435970452,
,None,None,None,None,None,None,None,None,None,None,tandem,origin,19.5,20.5,video&audio/Sentence4_touch_edited.mp4,video&audio/coerce_touch_edited.mp4,falter,coerce,None,,,,,,,,,,,,,,,,,,,,,,,,,,,,,,,,,,,,,,,,,,,,,,,,,,,,,,,,,,,0,5,5,15,,,,,,,,,,,,,,,,,None,,,,,,,,,,,,,,,,,,,,,,,,,None, coerce,"['c', 'o', 'e', 'r', 'e', 'backspace', 'c', 'e', 'return']","[0.8743842000003497, 1.0667722999969556, 1.5304633999985526, 1.7224335999999312, 1.8587802999973064, 2.906730899998365, 3.2021935999982816, 3.26616869999998, 3.818595099997765]",,,13,001,H,2023_Feb_08_1444,student_TT_local,2021.1.4,60.14925435970452,
,None,None,None,None,None,None,None,None,None,None,hearth,herbal,19.5,20.5,video&audio/sentence3_TT_3X.mp4,video&audio/deduct_touch_edited.mp4,hippie,deduct,None,,,,,,,,,,,,,,,,,,,,,,,,,,,,,,,,,,,,,,,,,,,,,,,,,,,,,,,,,,,0,6,6,14,,,,,,,,,,,,,,,,,None,,,,,,,,,,,,,,,,,,,,,,,,,None, deduct,"['d', 'e', 'd', 'u', 'c', 't', 'return']","[0.545523000000685, 0.6733698999996705, 1.0895818999997573, 1.2578433000016958, 1.4012956000005943, 1.7373813000012888, 2.9692208000014944]",,,13,001,H,2023_Feb_08_1444,student_TT_local,2021.1.4,60.14925435970452,
,None,None,None,None,None,None,None,None,None,None,shrewd,revoke,6.5,7.5,video&audio/sentence1_TT_3X.mp4,video&audio/mirage_TT_3X.mp4,malady,mirage,None,,,,,,,,,,,,,,,,,,,,,,,,,,,,,,,,,,,,,,,,,,,,,,,,,,,,,,,,,,,0,7,7,6,,,,,,,,,,,,,,,,,None,,,,,,,,,,,,,,,,,,,,,,,,,None, mirage,"['m', 'i', 'r', 'a', 'g', 'e', 'return']","[0.9855888999991294, 1.1447086000007403, 1.3135800999989442, 1.5768575000001874, 1.8087114000009024, 1.9212069999994128, 2.9526882999998634]",,,13,001,H,2023_Feb_08_1444,student_TT_local,2021.1.4,60.14925435970452,
,None,None,None,None,None,None,None,None,None,None,septic,ordain,19.5,20.5,video&audio/sentence2_TT_3X.mp4,video&audio/potent_touch_edited.mp4,neural,potent,None,,,,,,,,,,,,,,,,,,,,,,,,,,,,,,,,,,,,,,,,,,,,,,,,,,,,,,,,,,,0,8,8,13,,,,,,,,,,,,,,,,,None,,,,,,,,,,,,,,,,,,,,,,,,,None, potent,"['o', 't', 'e', 'n', 't', 'return']","[0.7328067000016745, 1.0925134000026446, 1.2286678000018583, 1.4607838000010815, 1.6124436000027345, 2.0291099999994913]",,,13,001,H,2023_Feb_08_1444,student_TT_local,2021.1.4,60.14925435970452,
,None,None,None,None,None,None,None,None,None,None,induce,mussel,19.5,20.5,video&audio/Sentence4_touch_edited.mp4,video&audio/satire_touch_edited.mp4,cortex,satire,None,,,,,,,,,,,,,,,,,,,,,,,,,,,,,,,,,,,,,,,,,,,,,,,,,,,,,,,,,,,0,9,9,21,,,,,,,,,,,,,,,,,None,,,,,,,,,,,,,,,,,,,,,,,,,None, satire,"['s', 'a', 't', 'i', 'r', 'e', 'return']","[0.8585473999992246, 0.9553420999982336, 1.098917100000108, 1.5394802000009804, 1.6825890000000072, 1.7470804999975371, 2.2587247000010393]",,,13,001,H,2023_Feb_08_1444,student_TT_local,2021.1.4,60.14925435970452,
,None,None,None,None,None,None,None,None,None,None,fungal,mucous,19.5,20.5,video&audio/Sentence5_touch_edited.mp4,video&audio/musket_touch_edited.mp4,subtle,musket,None,,,,,,,,,,,,,,,,,,,,,,,,,,,,,,,,,,,,,,,,,,,,,,,,,,,,,,,,,,,0,10,10,22,,,,,,,,,,,,,,,,,None,,,,,,,,,,,,,,,,,,,,,,,,,None, musket,"['m', 'u', 's', 'k', 'e', 't', 'return']","[0.99639489999754, 1.2120972999982769, 1.4364702999992005, 1.9880236999997578, 2.0919236000008823, 2.259919100000843, 3.1481165000004694]",,,13,001,H,2023_Feb_08_1444,student_TT_local,2021.1.4,60.14925435970452,
,"While you watch the video, imagine yourself typing the word on the screen, like how you did in the imagery practice. While you watch the video and imagine this, rest your hands on your keyboard but DO NOT type until AFTER you see the typing prompt.

Press 'enter/return' to go to the next page.","While watching the video, imagine yourself typing the word on the screen, like how you did in the imagery practice. While you watch the video and imagine this, rest your hands on your keyboard but DO NOT type until AFTER you see the typing prompt.

Press 'enter/return' to go to the next page.",video&audio/Example_AOMI_imagine.png,1.6,1,butter,6.5,7.5,video&audio/amount_TT_3X.mp4,video&audio/butter_TT_3X.mp4,metric,eatery,6.5,7.5,video&audio/sentence2_TT_3X.mp4,video&audio/plight_TT_3X.mp4,ascend,plight,2 = AOMIspec,,,,,,,,,,,,,,,,,,,,,,,,,,,,,,,,,,,,,,,,,,,,,,,,,,,,,,,,,,,0,11,11,1,,,,,,,,,,,,,,,,,None,,,,,,,,,,,,,,,,,,,,,,,,,None, plight,"['p', 'l', 'i', 'g', 'h', 't', 'return']","[0.9942855000008421, 1.162911700001132, 1.411030600000231, 1.7462416999987909, 2.370467600001575, 2.57085509999888, 3.4505190000018047]",,,13,001,H,2023_Feb_08_1444,student_TT_local,2021.1.4,60.14925435970452,
,None,None,None,None,None,None,None,None,None,None,clergy,portal,19.5,20.5,video&audio/Sentence6_touch_edited.mp4,video&audio/murmur_touch_edited.mp4,ritual,murmur,None,,,,,,,,,,,,,,,,,,,,,,,,,,,,,,,,,,,,,,,,,,,,,,,,,,,,,,,,,,,0,12,12,17,,,,,,,,,,,,,,,,,None,,,,,,,,,,,,,,,,,,,,,,,,,None, murmur,"['m', 'u', 'r', 'm', 'u', 'r', 'return']","[0.8508221000010963, 1.0427995000027295, 1.3791793000018515, 1.6198413000020082, 1.7713717000006, 1.9227798000028997, 2.338958400003321]",,,13,001,H,2023_Feb_08_1444,student_TT_local,2021.1.4,60.14925435970452,
,None,None,None,None,None,None,None,None,None,None,innate,tamper,6.5,7.5,video&audio/sentence1_TT_3X.mp4,video&audio/sonnet_TT_3X.mp4,confer,sonnet,None,,,,,,,,,,,,,,,,,,,,,,,,,,,,,,,,,,,,,,,,,,,,,,,,,,,,,,,,,,,0,13,13,12,,,,,,,,,,,,,,,,,None,,,,,,,,,,,,,,,,,,,,,,,,,None, sonnet,"['s', 'o', 'n', 'n', 'e', 't', 'return']","[1.4736236999997345, 1.537515700001677, 1.721456400002353, 2.0655251999996835, 2.297555700002704, 2.4177314000007755, 3.2500345000007655]",,,13,001,H,2023_Feb_08_1444,student_TT_local,2021.1.4,60.14925435970452,
,None,None,None,None,None,None,None,None,None,None,befall,ration,6.5,7.5,video&audio/sentence3_TT_3X.mp4,video&audio/parole_TT_3X.mp4,solemn,parole,None,,,,,,,,,,,,,,,,,,,,,,,,,,,,,,,,,,,,,,,,,,,,,,,,,,,,,,,,,,,0,14,14,8,,,,,,,,,,,,,,,,,None,,,,,,,,,,,,,,,,,,,,,,,,,None, parole,"['p', 'a', 'r', 'o', 'l', 'e', 'return']","[1.350362100001803, 1.4543081000010716, 1.8377347000023292, 1.9820590000017546, 2.1263386999999057, 2.2463534000016807, 2.781988300001103]",,,13,001,H,2023_Feb_08_1444,student_TT_local,2021.1.4,60.14925435970452,
,None,None,None,None,None,None,None,None,None,None,campus,allure,6.5,7.5,video&audio/Sentence6_touch_edited.mp4,video&audio/binder_TT_3X.mp4,forage,binder,None,,,,,,,,,,,,,,,,,,,,,,,,,,,,,,,,,,,,,,,,,,,,,,,,,,,,,,,,,,,0,15,15,29,,,,,,,,,,,,,,,,,None,,,,,,,,,,,,,,,,,,,,,,,,,None, binder,"['b', 'i', 'n', 'd', 'e', 'r', 'return']","[0.8800136999998358, 1.1118917999992846, 1.2800220999997691, 1.527837499997986, 1.6401190999968094, 1.7998210999976436, 2.392323000000033]",,,13,001,H,2023_Feb_08_1444,student_TT_local,2021.1.4,60.14925435970452,
,None,None,None,None,None,None,None,None,None,None,patent,defame,6.5,7.5,video&audio/sentence6_TT_3X.mp4,video&audio/quarry_TT_3X.mp4,covert,quarry,None,,,,,,,,,,,,,,,,,,,,,,,,,,,,,,,,,,,,,,,,,,,,,,,,,,,,,,,,,,,0,16,16,11,,,,,,,,,,,,,,,,,None,,,,,,,,,,,,,,,,,,,,,,,,,None, quarry,"['q', 'u', 'a', 'r', 'r', 'y', 'return']","[0.8639216000010492, 1.0476596000007703, 1.1760991000010108, 1.4961822000004759, 1.6161821000023338, 1.8556905000004917, 2.4799835000012536]",,,13,001,H,2023_Feb_08_1444,student_TT_local,2021.1.4,60.14925435970452,
,"Remember to type as QUICKLY and ACCURATELY as possible after the 'get ready' prompt.

Ask the experimenter any questions now. Please put on the headphones.

You will get one practice trial. Press 'enter/return' when you are ready to start the practice.","Remember to type as QUICKLY and ACCURATELY as you can after the 'get ready' prompt.

Ask the experimenter any questions now. Please put on the headphones.

You will get one practice trial. Press 'enter/return' when you are ready to start the practice.",video&audio/Example_AOMI_total.png,1.8,0.7,None,None,None,None,None,oppose,ghetto,6.5,7.5,video&audio/sentence3_TT_3X.mp4,video&audio/jargon_TT_3X.mp4,frugal,jargon,None,,,,,,,,,,,,,,,,,,,,,,,,,,,,,,,,,,,,,,,,,,,,,,,,,,,,,,,,,,,0,17,17,2,,,,,,,,,,,,,,,,,None,,,,,,,,,,,,,,,,,,,,,,,,,None, jargon,"['j', 'a', 'r', 'g', 'o', 'n', 'return']","[1.017322100000456, 1.1296919000014896, 1.3619284000014886, 1.601808899999014, 2.058099300000322, 2.273829100002331, 2.913313700002618]",,,13,001,H,2023_Feb_08_1444,student_TT_local,2021.1.4,60.14925435970452,
,None,None,None,None,None,None,None,None,None,None,joiner,apathy,6.5,7.5,video&audio/sentence6_TT_3X.mp4,video&audio/revolt_TT_3X.mp4,virile,revolt,None,,,,,,,,,,,,,,,,,,,,,,,,,,,,,,,,,,,,,,,,,,,,,,,,,,,,,,,,,,,0,18,18,5,,,,,,,,,,,,,,,,,None,,,,,,,,,,,,,,,,,,,,,,,,,None, revolt,"['r', 'e', 'v', 'o', 'l', 't', 'return']","[0.94681810000111, 1.0184171000000788, 1.299005599998054, 1.4504235999993398, 1.6261680999996315, 1.7946074999999837, 2.650456600000325]",,,13,001,H,2023_Feb_08_1444,student_TT_local,2021.1.4,60.14925435970452,
,None,None,None,None,None,None,None,None,None,None,jailer,nettle,19.5,20.5,video&audio/Sentence5_touch_edited.mp4,video&audio/convoy_touch_edited.mp4,plasma,convoy,None,,,,,,,,,,,,,,,,,,,,,,,,,,,,,,,,,,,,,,,,,,,,,,,,,,,,,,,,,,,0,19,19,16,,,,,,,,,,,,,,,,,None,,,,,,,,,,,,,,,,,,,,,,,,,None, convoy,"['c', 'o', 'n', 'v', 'o', 'y', 'return']","[1.2254734999987704, 1.362467499999184, 1.6651129999991099, 1.9368680000006862, 2.0737279999993916, 2.3851957000006223, 3.057282400000986]",,,13,001,H,2023_Feb_08_1444,student_TT_local,2021.1.4,60.14925435970452,
,None,None,None,None,None,None,None,None,None,None,hamlet,shroud,6.5,7.5,video&audio/sentence4_TT_3X.mp4,video&audio/sherry_TT_3X.mp4,jackal,sherry,None,,,,,,,,,,,,,,,,,,,,,,,,,,,,,,,,,,,,,,,,,,,,,,,,,,,,,,,,,,,0,20,20,9,,,,,,,,,,,,,,,,,None,,,,,,,,,,,,,,,,,,,,,,,,,None, sherry,"['s', 'h', 'e', 'r', 'r', 'y', 'return']","[0.7344427000025462, 0.8625511000027473, 1.014548700000887, 1.3824297999999544, 1.5184605000031297, 1.614230300001509, 2.0228005000026315]",,,13,001,H,2023_Feb_08_1444,student_TT_local,2021.1.4,60.14925435970452,
,"This is Section 2.

In this section, your task will be the same as before - that is, to type the word you see on the screen AFTER the typing prompt. However, rather than just seeing the word before typing, you will also see a video of someone typing different words to what you will need to type at different speeds. 

Press 'enter/return' to go to the next page.","This is Section 4. 

In this section, your task will be the same as before - that is, to type the word you see on the screen after the typing prompt. You will see a video again, like in Section 2, only this time, the video will show someone the same word that you must type at different speeds. 

Press 'enter/return' to go to the next page.",video&audio/Example_AOMI_layout.png,1.6,0.6,afford,19.5,20.5,video&audio/amount_touch_edited.mp4,video&audio/afford_touch_edited.mp4,hinder,breach,6.5,7.5,video&audio/sentence1_TT_3X.mp4,video&audio/vanity_TT_3X.mp4,matrix,vanity,1 = AOMIgen,,,,,,,,,,,,,,,,,,,,,,,,,,,,,,,,,,,,,,,,,,,,,,,,,,,,,,,,,,,0,21,21,0,,,,,,,,,,,,,,,,,None,,,,,,,,,,,,,,,,,,,,,,,,,None, vanity,"['v', 'a', 'n', 'i', 'o', 'r', 'y', 'backspace', 'backspace', 't', 'y', 'return']","[0.7024963000003481, 0.8070742999989307, 1.1105250000000524, 1.374420200001623, 1.3832031000019924, 2.2788465000012366, 2.406917700001941, 3.174761500002205, 3.286892700001772, 3.502889600000344, 3.639029300000402, 4.406946600000083]",,,13,001,H,2023_Feb_08_1444,student_TT_local,2021.1.4,60.14925435970452,
,None,None,None,None,None,None,None,None,None,None,parish,gullet,19.5,20.5,video&audio/Sentence5_touch_edited.mp4,video&audio/manure_touch_edited.mp4,picket,manure,None,,,,,,,,,,,,,,,,,,,,,,,,,,,,,,,,,,,,,,,,,,,,,,,,,,,,,,,,,,,0,22,22,28,,,,,,,,,,,,,,,,,None,,,,,,,,,,,,,,,,,,,,,,,,,None, manure,"['m', 'a', 'n', 'u', 'r', 'e', 'return']","[1.281954300000507, 1.4018175000019255, 1.585748000001331, 1.801580900002591, 2.081591500002105, 2.1457587000004423, 2.785671600002388]",,,13,001,H,2023_Feb_08_1444,student_TT_local,2021.1.4,60.14925435970452,
,None,None,None,None,None,None,None,None,None,None,mangle,warble,19.5,20.5,video&audio/Sentence1_touch_edited.mp4,video&audio/fodder_touch_edited.mp4,devise,fodder,None,,,,,,,,,,,,,,,,,,,,,,,,,,,,,,,,,,,,,,,,,,,,,,,,,,,,,,,,,,,0,23,23,24,,,,,,,,,,,,,,,,,None,,,,,,,,,,,,,,,,,,,,,,,,,None, fodder,"['f', 'o', 'd', 'd', 'e', 'r', 'return']","[0.5163862999979756, 0.676134399996954, 1.1085786999974516, 1.2683327999984613, 1.4124028999976872, 1.564394999997603, 2.3246581999992486]",,,13,001,H,2023_Feb_08_1444,student_TT_local,2021.1.4,60.14925435970452,
,None,None,None,None,None,None,None,None,None,None,trench,ethnic,6.5,7.5,video&audio/Sentence4_touch_edited.mp4,video&audio/goblet_TT_3X.mp4,botany,goblet,None,,,,,,,,,,,,,,,,,,,,,,,,,,,,,,,,,,,,,,,,,,,,,,,,,,,,,,,,,,,0,24,24,27,,,,,,,,,,,,,,,,,None,,,,,,,,,,,,,,,,,,,,,,,,,None, goblet,"['g', 'o', 'b', 'l', 'e', 't', 'return']","[0.8374670999983209, 1.0299721999981557, 1.4615907999977935, 1.5977777000007336, 2.0536764999997104, 2.2699882999986585, 3.3338326000011875]",,,13,001,H,2023_Feb_08_1444,student_TT_local,2021.1.4,60.14925435970452,
,None,None,None,None,None,None,None,None,None,None,caviar,shrill,19.5,20.5,video&audio/Sentence3_touch_edited.mp4,video&audio/brazen_touch_edited.mp4,piston,brazen,None,,,,,,,,,,,,,,,,,,,,,,,,,,,,,,,,,,,,,,,,,,,,,,,,,,,,,,,,,,,0,25,25,20,,,,,,,,,,,,,,,,,None,,,,,,,,,,,,,,,,,,,,,,,,,None, brazen,"['b', 'r', 'a', 'z', 'e', 'n', 'return']","[1.0568830000011076, 1.4897873000008985, 1.6015426000012667, 2.0812769000003755, 2.4570739999981015, 2.7051677999988897, 3.2895731999997224]",,,13,001,H,2023_Feb_08_1444,student_TT_local,2021.1.4,60.14925435970452,
,None,None,None,None,None,None,None,None,None,None,meddle,divert,19.5,20.5,video&audio/Sentence2_touch_edited.mp4,video&audio/upkeep_touch_edited.mp4,kipper,upkeep,None,,,,,,,,,,,,,,,,,,,,,,,,,,,,,,,,,,,,,,,,,,,,,,,,,,,,,,,,,,,0,26,26,25,,,,,,,,,,,,,,,,,None,,,,,,,,,,,,,,,,,,,,,,,,,None, upkeep,"['u', 'p', 'k', 'e', 'e', 'p', 'return']","[0.353679200001352, 0.849640399999771, 1.4740610000008019, 1.8017766000011761, 1.9376095000006899, 2.0733089999994263, 2.586309500002244]",,,13,001,H,2023_Feb_08_1444,student_TT_local,2021.1.4,60.14925435970452,
,None,None,None,None,None,None,None,None,None,None,output,uphold,19.5,20.5,video&audio/Sentence1_touch_edited.mp4,video&audio/pursue_touch_edited.mp4,debtor,pursue,None,,,,,,,,,,,,,,,,,,,,,,,,,,,,,,,,,,,,,,,,,,,,,,,,,,,,,,,,,,,0,27,27,18,,,,,,,,,,,,,,,,,None,,,,,,,,,,,,,,,,,,,,,,,,,None, pursue,"['p', 'u', 'r', 's', 'u', 'r', 'backspace', 'e', 'return']","[0.8709808999992674, 1.183103100000153, 1.4629153999994742, 1.7831100000003062, 1.9355002000011154, 2.1833552999996755, 3.270851400000538, 3.438745799998287, 3.607350599999336]",,,13,001,H,2023_Feb_08_1444,student_TT_local,2021.1.4,60.14925435970452,
,None,None,None,None,None,None,None,None,None,None,zephyr,fusion,6.5,7.5,video&audio/sentence5_TT_3X.mp4,video&audio/critic_TT_3X.mp4,obsess,critic,None,,,,,,,,,,,,,,,,,,,,,,,,,,,,,,,,,,,,,,,,,,,,,,,,,,,,,,,,,,,0,28,28,10,,,,,,,,,,,,,,,,,None,,,,,,,,,,,,,,,,,,,,,,,,,None, critic,"['c', 'r', 'i', 't', 'i', 'c', 'return']","[0.8345263000010164, 1.6986422000009043, 1.834516299997631, 2.018623199997819, 2.162850900000194, 2.3871332999988226, 2.691023100000166]",,,13,001,H,2023_Feb_08_1444,student_TT_local,2021.1.4,60.14925435970452,
,None,None,None,None,None,None,None,None,None,None,delude,galley,6.5,7.5,video&audio/sentence2_TT_3X.mp4,video&audio/strife_TT_3X.mp4,tariff,strife,None,,,,,,,,,,,,,,,,,,,,,,,,,,,,,,,,,,,,,,,,,,,,,,,,,,,,,,,,,,,0,29,29,7,,,,,,,,,,,,,,,,,None,,,,,,,,,,,,,,,,,,,,,,,,,None, strife,"['s', 't', 'r', 'i', 'f', 'e', 'return']","[0.8987454000016442, 1.098488700001326, 1.210524300000543, 1.6664565999999468, 1.930343800002447, 2.026202100001683, 2.6263255000012578]",,,13,001,H,2023_Feb_08_1444,student_TT_local,2021.1.4,60.14925435970452,
,,,,,,,,,,,,,,,,,,,,typingRatingScale.png,"How would you rate your typing performance in the previous section?

Press a number on your keyboard according to the rating scale below to give your answer. Your first answer will be accepted.",,,,,,,,,,,,,,,,,,,,,,,,,,,,,,,,,,,,,,,,,,,,,,,,,,,,,,,,,,,,,0,0,0,0,,,,,,,,,,,,,,,,,,,,,,,,,,,,,,,,,,,,,,,,,,['4'],[6.538777999998274],13,001,H,2023_Feb_08_1444,student_TT_local,2021.1.4,60.14925435970452,
,,,,,,,,,,,,,,,,,,,,visualImageryScale.png,"While imagining yourself typing, how clear was your visual image?

Press a number on your keyboard according to the rating scale below to give your answer. Your first answer will be accepted.",,,,,,,,,,,,,,,,,,,,,,,,,,,,,,,,,,,,,,,,,,,,,,,,,,,,,,,,,,,,,0,1,1,1,,,,,,,,,,,,,,,,,,,,,,,,,,,,,,,,,,,,,,,,,,['4'],[4.188442499998928],13,001,H,2023_Feb_08_1444,student_TT_local,2021.1.4,60.14925435970452,
,,,,,,,,,,,,,,,,,,,,kinestheticImageryScale.png,"While imagining yourself typing, how intense were the sensations associated with the imagined movement?

Press a number on your keyboard according to the rating scale below to give your answer. Your first answer will be accepted.",,,,,,,,,,,,,,,,,,,,,,,,,,,,,,,,,,,,,,,,,,,,,,,,,,,,,,,,,,,,,0,2,2,2,,,,,,,,,,,,,,,,,,,,,,,,,,,,,,,,,,,,,,,,,,['4'],[4.392595500001335],13,001,H,2023_Feb_08_1444,student_TT_local,2021.1.4,60.14925435970452,
