pracWords,instr_1,instr_2,AOMI_Ima,AOMI_w,AOMI_h,practiceWords,prac_time,prac_bkgd_time,pracVid_1,pracVid_2,baseline_words,control_words,cont_time,cont_bgkd_time,first_vids,second_vids,AOMIfirst_words,AOMIsecond_words,Order,ratingScale,rateInstr,instructLoop.thisRepN,instructLoop.thisTrialN,instructLoop.thisN,instructLoop.thisIndex,practice_control.thisRepN,practice_control.thisTrialN,practice_control.thisN,practice_control.thisIndex,trials_1.thisRepN,trials_1.thisTrialN,trials_1.thisN,trials_1.thisIndex,baseRateLoop.thisRepN,baseRateLoop.thisTrialN,baseRateLoop.thisN,baseRateLoop.thisIndex,AOMIinstrLoop1.thisRepN,AOMIinstrLoop1.thisTrialN,AOMIinstrLoop1.thisN,AOMIinstrLoop1.thisIndex,AOMIpracLoop.thisRepN,AOMIpracLoop.thisTrialN,AOMIpracLoop.thisN,AOMIpracLoop.thisIndex,trials_2.thisRepN,trials_2.thisTrialN,trials_2.thisN,trials_2.thisIndex,AOMI1rateLoop.thisRepN,AOMI1rateLoop.thisTrialN,AOMI1rateLoop.thisN,AOMI1rateLoop.thisIndex,contInstrLoop.thisRepN,contInstrLoop.thisTrialN,contInstrLoop.thisN,contInstrLoop.thisIndex,contPracLoop.thisRepN,contPracLoop.thisTrialN,contPracLoop.thisN,contPracLoop.thisIndex,trials_3.thisRepN,trials_3.thisTrialN,trials_3.thisN,trials_3.thisIndex,contRateLoop.thisRepN,contRateLoop.thisTrialN,contRateLoop.thisN,contRateLoop.thisIndex,AOMIinstrLoop2.thisRepN,AOMIinstrLoop2.thisTrialN,AOMIinstrLoop2.thisN,AOMIinstrLoop2.thisIndex,AOMIpracLoop2.thisRepN,AOMIpracLoop2.thisTrialN,AOMIpracLoop2.thisN,AOMIpracLoop2.thisIndex,trials_4.thisRepN,trials_4.thisTrialN,trials_4.thisN,trials_4.thisIndex,AOMI2rateLoop.thisRepN,AOMI2rateLoop.thisTrialN,AOMI2rateLoop.thisN,AOMI2rateLoop.thisIndex,pracBkgdKeys.keys,pracKeys.keys,pracKeys.rt,baseBkgdKeys.keys,base_typedWord,baseKeys.keys,baseKeys.rt,baseRateTypeKey.keys,baseRateTypeKey.rt,AOMI1_BkgdKeys.keys,AOMI_promptBkgdKeys.keys,AOMI1pracKeys.keys,AOMI1pracKeys.rt,AOMI1bkdgKeys.keys,AOMI1_typedWord,AOMI1keys.keys,AOMI1keys.rt,AOMI1rateTypeKey.keys,AOMI1rateTypeKey.rt,polygon_prac.started,polygon_prac.stopped,contBkgdKeys_prac.keys,contPrac_typedWord,contKeys_prac.keys,contKeys_prac.rt,polygon.started,polygon.stopped,contBkgdKeys.keys,cont_typedWord,contKeys.keys,contKeys.rt,contTypeKey.keys,contTypeKey.rt,bkgdkeys_prac2.keys,bkgdKeys4.keys,AOMI2_typedWord,keyboardCom4.keys,keyboardCom4.rt,AOMI2typeKey.keys,AOMI2typeKey.rt,participant,session,group,date,expName,psychopyVersion,frameRate,
height,,,,,,,,,,,,,,,,,,,,,,,,,,0,0,0,0,,,,,,,,,,,,,,,,,,,,,,,,,,,,,,,,,,,,,,,,,,,,,,,,,,,,,,,,,None,"['h', 'e', 'i', 'g', 'h', 't', 'return']","[1.0576208000002225, 1.2255590000004304, 1.4248814000002312, 1.705899100001261, 1.817049200000838, 1.9775699000001623, 2.240990400001465]",,,,,,,,,,,,,,,,,,,,,,,,,,,,,,,,,,,,,,15,001,E,2023_Feb_08_1249,student_TT_local,2021.1.4,59.96904397918476,
replay,,,,,,,,,,,,,,,,,,,,,,,,,,0,1,1,1,,,,,,,,,,,,,,,,,,,,,,,,,,,,,,,,,,,,,,,,,,,,,,,,,,,,,,,,,None,"['r', 'e', 'p', 'l', 'a', 'y', 'return']","[0.9337154000004375, 1.021914500001003, 1.1978211000005103, 1.4063434000017878, 1.5256923000015377, 1.7497771000016655, 2.1019148000013956]",,,,,,,,,,,,,,,,,,,,,,,,,,,,,,,,,,,,,,15,001,E,2023_Feb_08_1249,student_TT_local,2021.1.4,59.96904397918476,
update,,,,,,,,,,,,,,,,,,,,,,,,,,0,2,2,2,,,,,,,,,,,,,,,,,,,,,,,,,,,,,,,,,,,,,,,,,,,,,,,,,,,,,,,,,None,"['u', 'p', 'd', 'a', 't', 'e', 'return']","[1.5052993000008428, 1.6089007000009588, 1.993071000000782, 2.1290208999998868, 2.40106680000099, 2.497260500000266, 2.928870600000664]",,,,,,,,,,,,,,,,,,,,,,,,,,,,,,,,,,,,,,15,001,E,2023_Feb_08_1249,student_TT_local,2021.1.4,59.96904397918476,
,None,None,None,None,None,None,None,None,None,None,cervix,cobble,19.5,20.5,video&audio/export_touch_edited.mp4,video&audio/Sentence2_touch_edited.mp4,export,savant,None,,,,,,,,,,,0,0,0,19,,,,,,,,,,,,,,,,,,,,,,,,,,,,,,,,,,,,,,,,,,,,,,,,,,,,,,,,None, cervix,"['c', 'e', 'r', 'v', 'i', 'x', 'return']","[0.9235207999990962, 1.0836527999999817, 1.340124399999695, 1.6354792999991332, 1.8195562000000791, 2.1792724000006274, 2.387582299999849]",,,,,,,,,,,,,,,,,,,,,,,,,,,,,,,,,,15,001,E,2023_Feb_08_1249,student_TT_local,2021.1.4,59.96904397918476,
,None,None,None,None,None,None,None,None,None,None,debtor,output,19.5,20.5,video&audio/uphold_touch_edited.mp4,video&audio/Sentence1_touch_edited.mp4,uphold,pursue,None,,,,,,,,,,,0,1,1,18,,,,,,,,,,,,,,,,,,,,,,,,,,,,,,,,,,,,,,,,,,,,,,,,,,,,,,,,None, debtor,"['d', 'e', 'b', 't', 'o', 'r', 'return']","[0.991909600001236, 1.087772800001403, 1.4400729999997566, 1.6723716000014974, 1.8638490000012098, 1.9762523000008514, 2.1919448000007833]",,,,,,,,,,,,,,,,,,,,,,,,,,,,,,,,,,15,001,E,2023_Feb_08_1249,student_TT_local,2021.1.4,59.96904397918476,
,None,None,None,None,None,None,None,None,None,None,belfry,girdle,19.5,20.5,video&audio/linear_touch_edited.mp4,video&audio/Sentence6_touch_edited.mp4,linear,impose,None,,,,,,,,,,,0,2,2,23,,,,,,,,,,,,,,,,,,,,,,,,,,,,,,,,,,,,,,,,,,,,,,,,,,,,,,,,None, belfry,"['b', 'e', 'l', 'f', 'r', 'y', 'return']","[0.8859094999988884, 1.2058942999992723, 1.3656780999990588, 1.6139952999983507, 1.8060575999988941, 2.061512899999798, 2.2616409999991447]",,,,,,,,,,,,,,,,,,,,,,,,,,,,,,,,,,15,001,E,2023_Feb_08_1249,student_TT_local,2021.1.4,59.96904397918476,
,None,None,None,None,None,None,None,None,None,None,subtle,fungal,19.5,20.5,video&audio/mucous_touch_edited.mp4,video&audio/Sentence5_touch_edited.mp4,mucous,musket,None,,,,,,,,,,,0,3,3,22,,,,,,,,,,,,,,,,,,,,,,,,,,,,,,,,,,,,,,,,,,,,,,,,,,,,,,,,None, subtle,"['s', 'u', 'b', 't', 'l', 'e', 'return']","[1.1327234999989741, 1.276951799998642, 1.4535567999992054, 1.8927996999991592, 2.0381171999997605, 2.204825599999822, 2.6929165000001376]",,,,,,,,,,,,,,,,,,,,,,,,,,,,,,,,,,15,001,E,2023_Feb_08_1249,student_TT_local,2021.1.4,59.96904397918476,
,None,None,None,None,None,None,None,None,None,None,solemn,befall,6.5,7.5,video&audio/ration_TT_3X.mp4,video&audio/sentence3_TT_3X.mp4,ration,parole,None,,,,,,,,,,,0,4,4,8,,,,,,,,,,,,,,,,,,,,,,,,,,,,,,,,,,,,,,,,,,,,,,,,,,,,,,,,None, solemn,"['s', 'o', 'l', 'e', 'm', 'n', 'return']","[0.9452887999996165, 1.1055856000002677, 1.2575488000002224, 1.4097860999991099, 1.5942242999990412, 1.793284199999107, 2.2104712999989715]",,,,,,,,,,,,,,,,,,,,,,,,,,,,,,,,,,15,001,E,2023_Feb_08_1249,student_TT_local,2021.1.4,59.96904397918476,
,None,None,None,None,None,None,None,None,None,None,botany,trench,19.5,20.5,video&audio/ethnic_touch_edited.mp4,video&audio/Sentence4_touch_edited.mp4,ethnic,goblet,None,,,,,,,,,,,0,5,5,27,,,,,,,,,,,,,,,,,,,,,,,,,,,,,,,,,,,,,,,,,,,,,,,,,,,,,,,,None, botany,"['b', 'o', 't', 'a', 'n', 'y', 'return']","[0.7897847999993246, 1.2126427999992302, 1.524828699999489, 1.6762937999992573, 1.8283890999991854, 2.1486279999990074, 2.4528888999993796]",,,,,,,,,,,,,,,,,,,,,,,,,,,,,,,,,,15,001,E,2023_Feb_08_1249,student_TT_local,2021.1.4,59.96904397918476,
,None,None,None,None,None,None,None,None,None,None,forage,campus,19.5,20.5,video&audio/allure_touch_edited.mp4,video&audio/Sentence6_touch_edited.mp4,allure,binder,None,,,,,,,,,,,0,6,6,29,,,,,,,,,,,,,,,,,,,,,,,,,,,,,,,,,,,,,,,,,,,,,,,,,,,,,,,,None, forage,"['f', 'o', 'r', 'a', 'g', 'e', 'return']","[0.9263016000004427, 1.1182642000003398, 1.3342819000008603, 1.4222030000000814, 1.6872884999993403, 1.7585080999997444, 2.366455900000801]",,,,,,,,,,,,,,,,,,,,,,,,,,,,,,,,,,15,001,E,2023_Feb_08_1249,student_TT_local,2021.1.4,59.96904397918476,
,None,None,None,None,None,None,None,None,None,None,cortex,induce,19.5,20.5,video&audio/mussel_touch_edited.mp4,video&audio/Sentence4_touch_edited.mp4,mussel,satire,None,,,,,,,,,,,0,7,7,21,,,,,,,,,,,,,,,,,,,,,,,,,,,,,,,,,,,,,,,,,,,,,,,,,,,,,,,,None, cortex,"['c', 'o', 'r', 't', 'e', 'x', 'return']","[0.9608473999996932, 1.08036600000014, 1.4970135999992635, 1.6966240000001562, 1.7847528000002058, 2.2165757000002486, 2.4648957000008522]",,,,,,,,,,,,,,,,,,,,,,,,,,,,,,,,,,15,001,E,2023_Feb_08_1249,student_TT_local,2021.1.4,59.96904397918476,
,None,None,None,None,None,None,None,None,None,None,piston,caviar,19.5,20.5,video&audio/shrill_touch_edited.mp4,video&audio/Sentence3_touch_edited.mp4,shrill,brazen,None,,,,,,,,,,,0,8,8,20,,,,,,,,,,,,,,,,,,,,,,,,,,,,,,,,,,,,,,,,,,,,,,,,,,,,,,,,None, piston,"['p', 'i', 's', 't', 'o', 'n', 'return']","[1.027380199999243, 1.387858399999459, 1.5237543000002916, 1.8515270999996574, 2.0206591000005574, 2.2837046999993618, 2.859415099999751]",,,,,,,,,,,,,,,,,,,,,,,,,,,,,,,,,,15,001,E,2023_Feb_08_1249,student_TT_local,2021.1.4,59.96904397918476,
,"While you watch the video, imagine yourself typing the word on the screen, like how you did in the imagery practice. While you watch the video and imagine this, rest your hands on your keyboard but DO NOT type until AFTER you see the typing prompt.

Press 'enter/return' to go to the next page.","While watching the video, imagine yourself typing the word on the screen, like how you did in the imagery practice. While you watch the video and imagine this, rest your hands on your keyboard but DO NOT type until AFTER you see the typing prompt.

Press 'enter/return' to go to the next page.",video&audio/Example_AOMI_imagine.png,1.6,1,butter,6.5,7.5,video&audio/butter_TT_3X.mp4,video&audio/amount_TT_3X.mp4,ascend,metric,6.5,7.5,video&audio/eatery_TT_3X.mp4,video&audio/sentence2_TT_3X.mp4,eatery,plight,2 = AOMIgen,,,,,,,,,,,0,9,9,1,,,,,,,,,,,,,,,,,,,,,,,,,,,,,,,,,,,,,,,,,,,,,,,,,,,,,,,,None, ascend,"['a', 's', 'c', 'e', 'n', 'd', 'return']","[0.8500475999990158, 1.1859451999989687, 1.2986982000002172, 1.562618799998745, 1.7940884999989066, 1.9057491999992635, 2.105718499999057]",,,,,,,,,,,,,,,,,,,,,,,,,,,,,,,,,,15,001,E,2023_Feb_08_1249,student_TT_local,2021.1.4,59.96904397918476,
,None,None,None,None,None,None,None,None,None,None,kipper,meddle,19.5,20.5,video&audio/divert_touch_edited.mp4,video&audio/Sentence2_touch_edited.mp4,divert,upkeep,None,,,,,,,,,,,0,10,10,25,,,,,,,,,,,,,,,,,,,,,,,,,,,,,,,,,,,,,,,,,,,,,,,,,,,,,,,,None, kipper,"['k', 'i', 'p', 'p', 'e', 'r', 'return']","[0.8299080999986472, 1.078388999998424, 1.3746942999987368, 1.4789524999996502, 1.6698959999994258, 1.7658096999984991, 1.9498695999991469]",,,,,,,,,,,,,,,,,,,,,,,,,,,,,,,,,,15,001,E,2023_Feb_08_1249,student_TT_local,2021.1.4,59.96904397918476,
,None,None,None,None,None,None,None,None,None,None,neural,septic,6.5,7.5,video&audio/innate_TT_3X.mp4,video&audio/sentence2_TT_3X.mp4,ordain,potent,None,,,,,,,,,,,0,11,11,13,,,,,,,,,,,,,,,,,,,,,,,,,,,,,,,,,,,,,,,,,,,,,,,,,,,,,,,,None, neural,"['n', 'e', 'u', 'r', 'a', 'l', 'return']","[0.9680232999999134, 1.3439646000006178, 1.6959047000000282, 1.880361500001527, 2.1126995000013267, 2.2637696000001597, 2.848358000001099]",,,,,,,,,,,,,,,,,,,,,,,,,,,,,,,,,,15,001,E,2023_Feb_08_1249,student_TT_local,2021.1.4,59.96904397918476,
,None,None,None,None,None,None,None,None,None,None,virile,joiner,6.5,7.5,video&audio/apathy_TT_3X.mp4,video&audio/sentence6_TT_3X.mp4,apathy,revolt,None,,,,,,,,,,,0,12,12,5,,,,,,,,,,,,,,,,,,,,,,,,,,,,,,,,,,,,,,,,,,,,,,,,,,,,,,,,None, virile,"['v', 'i', 'r', 'i', 'l', 'e', 'return']","[0.926285800000187, 1.3747261999997136, 1.5662978000000294, 1.6796773999994912, 1.910524400000213, 2.1823693999995157, 2.4783915000007255]",,,,,,,,,,,,,,,,,,,,,,,,,,,,,,,,,,15,001,E,2023_Feb_08_1249,student_TT_local,2021.1.4,59.96904397918476,
,None,None,None,None,None,None,None,None,None,None,malady,shrewd,6.5,7.5,video&audio/revoke_TT_3X.mp4,video&audio/sentence1_TT_3X.mp4,revoke,mirage,None,,,,,,,,,,,0,13,13,6,,,,,,,,,,,,,,,,,,,,,,,,,,,,,,,,,,,,,,,,,,,,,,,,,,,,,,,,None, malady,"['m', 'a', 'l', 'a', 'd', 'y', 'return']","[1.0907640000004903, 1.2908502999998746, 1.4274860999994416, 1.5945582999993348, 1.8427391000004718, 2.2264666999999463, 2.6674932000005356]",,,,,,,,,,,,,,,,,,,,,,,,,,,,,,,,,,15,001,E,2023_Feb_08_1249,student_TT_local,2021.1.4,59.96904397918476,
,None,None,None,None,None,None,None,None,None,None,parcel,primal,6.5,7.5,video&audio/entail_TT_3X.mp4,video&audio/sentence5_TT_3X.mp4,entail,novice,None,,,,,,,,,,,0,14,14,4,,,,,,,,,,,,,,,,,,,,,,,,,,,,,,,,,,,,,,,,,,,,,,,,,,,,,,,,None, parcel,"['p', 'e', 'a', 'backspace', 'backspace', 'a', 'r', 'c', 'e', 'l', 'return']","[1.0875454000015452, 1.2006164000013086, 1.287602300000799, 2.343813200001023, 2.6967124000002514, 3.071803300001193, 3.2959191000009014, 3.648116400001527, 3.743953400000464, 3.935820300001069, 4.160097300000416]",,,,,,,,,,,,,,,,,,,,,,,,,,,,,,,,,,15,001,E,2023_Feb_08_1249,student_TT_local,2021.1.4,59.96904397918476,
,None,None,None,None,None,None,None,None,None,None,covert,patent,6.5,7.5,video&audio/defame_TT_3X.mp4,video&audio/sentence6_TT_3X.mp4,defame,quarry,None,,,,,,,,,,,0,15,15,11,,,,,,,,,,,,,,,,,,,,,,,,,,,,,,,,,,,,,,,,,,,,,,,,,,,,,,,,None, covert,"['c', 'o', 'v', 'e', 'r', 't', 'return']","[0.9710076999999728, 1.131645400000707, 1.322899700000562, 1.5785573000011937, 1.6990252000014152, 1.9477932999998302, 2.195202800001425]",,,,,,,,,,,,,,,,,,,,,,,,,,,,,,,,,,15,001,E,2023_Feb_08_1249,student_TT_local,2021.1.4,59.96904397918476,
,None,None,None,None,None,None,None,None,None,None,subdue,feudal,19.5,20.5,video&audio/matron_touch_edited.mp4,video&audio/Sentence3_touch_edited.mp4,matron,legion,None,,,,,,,,,,,0,16,16,26,,,,,,,,,,,,,,,,,,,,,,,,,,,,,,,,,,,,,,,,,,,,,,,,,,,,,,,,None, subdue,"['s', 'u', 'b', 'd', 'u', 'e', 'return']","[1.130683699999281, 1.3392026999990776, 1.571071699998356, 1.9157376999992266, 2.067099199999575, 2.171775599999819, 2.7304828999986057]",,,,,,,,,,,,,,,,,,,,,,,,,,,,,,,,,,15,001,E,2023_Feb_08_1249,student_TT_local,2021.1.4,59.96904397918476,
,"Remember to type as QUICKLY and ACCURATELY as possible after the 'get ready' prompt.

Ask the experimenter any questions now. Please put on the headphones.

You will get one practice trial. Press 'enter/return' when you are ready to start the practice.","Remember to type as QUICKLY and ACCURATELY as you can after the 'get ready' prompt.

Ask the experimenter any questions now. Please put on the headphones.

You will get one practice trial. Press 'enter/return' when you are ready to start the practice.",video&audio/Example_AOMI_total.png,1.8,0.7,None,None,None,None,None,frugal,oppose,6.5,7.5,video&audio/ghetto_TT_3X.mp4,video&audio/sentence3_TT_3X.mp4,ghetto,jargon,None,,,,,,,,,,,0,17,17,2,,,,,,,,,,,,,,,,,,,,,,,,,,,,,,,,,,,,,,,,,,,,,,,,,,,,,,,,None, frugal,"['f', 'r', 'u', 'g', 'a', 'l', 'return']","[0.9098668000006, 1.0225555000015447, 1.3500077000007877, 1.541954700000133, 1.7187730000005104, 2.022926000001462, 2.309785200000988]",,,,,,,,,,,,,,,,,,,,,,,,,,,,,,,,,,15,001,E,2023_Feb_08_1249,student_TT_local,2021.1.4,59.96904397918476,
,None,None,None,None,None,None,None,None,None,None,tariff,delude,6.5,7.5,video&audio/galley_TT_3X.mp4,video&audio/sentence2_TT_3X.mp4,galley,strife,None,,,,,,,,,,,0,18,18,7,,,,,,,,,,,,,,,,,,,,,,,,,,,,,,,,,,,,,,,,,,,,,,,,,,,,,,,,None, tariff,"['t', 'a', 'r', 'i', 'f', 'f', 'return']","[0.8872804000002361, 0.9830805999990844, 1.2237215999994078, 1.4470442999991064, 1.7360630000002857, 1.863134799999898, 2.3275930999989214]",,,,,,,,,,,,,,,,,,,,,,,,,,,,,,,,,,15,001,E,2023_Feb_08_1249,student_TT_local,2021.1.4,59.96904397918476,
,None,None,None,None,None,None,None,None,None,None,picket,parish,19.5,20.5,video&audio/gullet_touch_edited.mp4,video&audio/Sentence5_touch_edited.mp4,gullet,manure,None,,,,,,,,,,,0,19,19,28,,,,,,,,,,,,,,,,,,,,,,,,,,,,,,,,,,,,,,,,,,,,,,,,,,,,,,,,None, picket,"['p', 'i', 'c', 'k', 'e', 't', 'return']","[0.9976146999997582, 1.197718099998383, 1.5736235999993369, 1.6620507999996335, 1.9256522999985464, 2.0535407999996096, 2.565876099999514]",,,,,,,,,,,,,,,,,,,,,,,,,,,,,,,,,,15,001,E,2023_Feb_08_1249,student_TT_local,2021.1.4,59.96904397918476,
,None,None,None,None,None,None,None,None,None,None,hippie,hearth,6.5,7.5,video&audio/herbal_TT_3X.mp4,video&audio/sentence3_TT_3X.mp4,herbal,deduct,None,,,,,,,,,,,0,20,20,14,,,,,,,,,,,,,,,,,,,,,,,,,,,,,,,,,,,,,,,,,,,,,,,,,,,,,,,,None, hippie,"['h', 'i', 'p', 'p', 'i', 'e', 'return']","[0.8665744999998424, 1.1066410000003088, 1.4276100000006409, 1.5467263999998977, 1.7228357000003598, 1.8832220000003872, 2.090809100000115]",,,,,,,,,,,,,,,,,,,,,,,,,,,,,,,,,,15,001,E,2023_Feb_08_1249,student_TT_local,2021.1.4,59.96904397918476,
,"This is Section 2.

In this section, your task will be the same as before - that is, to type the word you see on the screen after the typing prompt. However, rather than just seeing the word before typing, you will also see a video of someone typing the same word you will need to type at various speeds. 

Press 'enter/return' to go to the next page.","This is Section 4. 

In this section, your task will be the same as before - that is, to type the word you see on the screen after the typing prompt. You will see a video again, like in Section 2, only this time, the video will show someone typing different words to what you must type at various speeds. 

Press 'enter/return' to go to the next page.",video&audio/Example_AOMI_layout.png,1.6,0.6,afford,19.5,20.5,video&audio/afford_touch_edited.mp4,video&audio/amount_touch_edited.mp4,matrix,hinder,6.5,7.5,video&audio/breach_TT_3X.mp4,video&audio/sentence1_TT_3X.mp4,breach,vanity,1 = AOMIspec,,,,,,,,,,,0,21,21,0,,,,,,,,,,,,,,,,,,,,,,,,,,,,,,,,,,,,,,,,,,,,,,,,,,,,,,,,None, matrix,"['m', 'a', 't', 'r', 'i', 'x', 'return']","[0.839698200001294, 0.9759116000004724, 1.2879938000005495, 1.4795798000013747, 1.6634669000013673, 1.9438974000004237, 2.207668700000795]",,,,,,,,,,,,,,,,,,,,,,,,,,,,,,,,,,15,001,E,2023_Feb_08_1249,student_TT_local,2021.1.4,59.96904397918476,
,None,None,None,None,None,None,None,None,None,None,confer,innate,6.5,7.5,video&audio/tamper_TT_3X.mp4,video&audio/sentence1_TT_3X.mp4,tamper,sonnet,None,,,,,,,,,,,0,22,22,12,,,,,,,,,,,,,,,,,,,,,,,,,,,,,,,,,,,,,,,,,,,,,,,,,,,,,,,,None, confer,"['c', 'o', 'n', 'f', 'e', 'r', 'return']","[0.9866425999989588, 1.1386212999987038, 1.4184936999990896, 1.8906893999992462, 1.954605899998569, 2.14675029999853, 2.754477999998926]",,,,,,,,,,,,,,,,,,,,,,,,,,,,,,,,,,15,001,E,2023_Feb_08_1249,student_TT_local,2021.1.4,59.96904397918476,
,None,None,None,None,None,None,None,None,None,None,plasma,jailer,19.5,20.5,video&audio/nettle_touch_edited.mp4,video&audio/Sentence5_touch_edited.mp4,nettle,convoy,None,,,,,,,,,,,0,23,23,16,,,,,,,,,,,,,,,,,,,,,,,,,,,,,,,,,,,,,,,,,,,,,,,,,,,,,,,,None, plasma,"['p', 'l', 'a', 's', 'm', 'a', 'return']","[0.9122127000009641, 0.9996062999998685, 1.096392299999934, 1.280095699999947, 1.4639449000005698, 1.6563130000013189, 2.1522187999999005]",,,,,,,,,,,,,,,,,,,,,,,,,,,,,,,,,,15,001,E,2023_Feb_08_1249,student_TT_local,2021.1.4,59.96904397918476,
,None,None,None,None,None,None,None,None,None,None,ritual,clergy,19.5,20.5,video&audio/portal_touch_edited.mp4,video&audio/Sentence6_touch_edited.mp4,portal,murmur,None,,,,,,,,,,,0,24,24,17,,,,,,,,,,,,,,,,,,,,,,,,,,,,,,,,,,,,,,,,,,,,,,,,,,,,,,,,None, ritual,"['r', 'i', 't', 'u', 'a', 'l', 'return']","[1.0524461999993946, 1.18832619999921, 1.404998500000147, 1.548600099999021, 1.7646972999991704, 1.948758499998803, 2.2766157999994903]",,,,,,,,,,,,,,,,,,,,,,,,,,,,,,,,,,15,001,E,2023_Feb_08_1249,student_TT_local,2021.1.4,59.96904397918476,
,None,None,None,None,None,None,None,None,None,None,falter,tandem,19.5,20.5,video&audio/origin_touch_edited.mp4,video&audio/Sentence4_touch_edited.mp4,origin,coerce,None,,,,,,,,,,,0,25,25,15,,,,,,,,,,,,,,,,,,,,,,,,,,,,,,,,,,,,,,,,,,,,,,,,,,,,,,,,None, falter,"['f', 'a', 'l', 't', 'e', 'r', 'return']","[0.910466000001179, 1.0467941999995674, 1.3181968000008055, 1.7582608000011533, 1.854140900000857, 1.974487900000895, 2.222234599999865]",,,,,,,,,,,,,,,,,,,,,,,,,,,,,,,,,,15,001,E,2023_Feb_08_1249,student_TT_local,2021.1.4,59.96904397918476,
,None,None,None,None,None,None,None,None,None,None,pulpit,oblige,6.5,7.5,video&audio/mystic_TT_3X.mp4,video&audio/sentence4_TT_3X.mp4,mystic,infirm,None,,,,,,,,,,,0,26,26,3,,,,,,,,,,,,,,,,,,,,,,,,,,,,,,,,,,,,,,,,,,,,,,,,,,,,,,,,None, pulpit,"['p', 'u', 'l', 'p', 'i', 't', 'return']","[1.0187098999995214, 1.1148926999994728, 1.5634907000003295, 1.8030472000009468, 1.9785879999999452, 2.314716099999714, 2.7390465999997105]",,,,,,,,,,,,,,,,,,,,,,,,,,,,,,,,,,15,001,E,2023_Feb_08_1249,student_TT_local,2021.1.4,59.96904397918476,
,None,None,None,None,None,None,None,None,None,None,devise,mangle,19.5,20.5,video&audio/warble_touch_edited.mp4,video&audio/Sentence1_touch_edited.mp4,warble,fodder,None,,,,,,,,,,,0,27,27,24,,,,,,,,,,,,,,,,,,,,,,,,,,,,,,,,,,,,,,,,,,,,,,,,,,,,,,,,None, devise,"['d', 'e', 'v', 'i', 's', 'e', 'return']","[1.1446025000004738, 1.224455499999749, 1.4972496999998839, 1.6884378000013385, 1.8484867000006489, 1.9691072000005079, 2.1043060000010883]",,,,,,,,,,,,,,,,,,,,,,,,,,,,,,,,,,15,001,E,2023_Feb_08_1249,student_TT_local,2021.1.4,59.96904397918476,
,None,None,None,None,None,None,None,None,None,None,obsess,zephyr,6.5,7.5,video&audio/fusion_TT_3X.mp4,video&audio/sentence5_TT_3X.mp4,fusion,critic,None,,,,,,,,,,,0,28,28,10,,,,,,,,,,,,,,,,,,,,,,,,,,,,,,,,,,,,,,,,,,,,,,,,,,,,,,,,None, obsess,"['o', 'b', 's', 'e', 's', 's', 'return']","[0.8808857000003627, 1.1212839999989228, 1.3368974999993952, 1.514010099999723, 1.7530335999999807, 1.9130851999998413, 2.1058682999992016]",,,,,,,,,,,,,,,,,,,,,,,,,,,,,,,,,,15,001,E,2023_Feb_08_1249,student_TT_local,2021.1.4,59.96904397918476,
,None,None,None,None,None,None,None,None,None,None,jackal,hamlet,6.5,7.5,video&audio/shroud_TT_3X.mp4,video&audio/sentence4_TT_3X.mp4,shroud,sherry,None,,,,,,,,,,,0,29,29,9,,,,,,,,,,,,,,,,,,,,,,,,,,,,,,,,,,,,,,,,,,,,,,,,,,,,,,,,None, jackal,"['j', 'a', 'c', 'k', 'a', 'l', 'return']","[0.9672097000002395, 1.0792428000004293, 1.334774999999354, 1.5115365000001475, 1.6710684000008769, 1.8308395999993081, 2.0550096000006306]",,,,,,,,,,,,,,,,,,,,,,,,,,,,,,,,,,15,001,E,2023_Feb_08_1249,student_TT_local,2021.1.4,59.96904397918476,
,,,,,,,,,,,,,,,,,,,,typingRatingScale.png,"How would you rate your typing performance in the previous section?

Press a number on your keyboard according to the rating scale below to give your answer. Your first answer will be accepted.",,,,,,,,,,,,,0,0,0,0,,,,,,,,,,,,,,,,,,,,,,,,,,,,,,,,,,,,,,,,,,,,,,,,,,,,,,,,['4'],[16.675864200000433],,,,,,,,,,,,,,,,,,,,,,,,,,,,,,,,15,001,E,2023_Feb_08_1249,student_TT_local,2021.1.4,59.96904397918476,
,,,,,,,,,,,,,,,,,,,,imageryCheckScale.png,"In the previous section did you imagine yourself typing?

Press a number on your keyboard according to the rating scale below to give your answer. Your first answer will be accepted.",,,,,,,,,,,,,0,1,1,1,,,,,,,,,,,,,,,,,,,,,,,,,,,,,,,,,,,,,,,,,,,,,,,,,,,,,,,,['1'],[11.063388900000064],,,,,,,,,,,,,,,,,,,,,,,,,,,,,,,,15,001,E,2023_Feb_08_1249,student_TT_local,2021.1.4,59.96904397918476,
,None,None,None,None,None,None,None,None,None,None,pulpit,oblige,6.5,7.5,video&audio/mystic_TT_3X.mp4,video&audio/sentence4_TT_3X.mp4,mystic,infirm,None,,,,,,,,,,,,,,,,,,,,,,,,,,,0,0,0,3,,,,,,,,,,,,,,,,,,,,,,,,,,,,,,,,,,,,,,,,,,,,,,None,None,"['b', 'u', 't', 't', 'e', 'r', 'return']","[0.9905201000001398, 1.2060266000007687, 1.6059423999995488, 1.7820573000008153, 1.917964000000211, 2.0620214999999007, 2.2139069000004383]",None, mystic,"['m', 'y', 's', 't', 'i', 'c', 'return']","[1.824441000000661, 2.2644739000006666, 2.5201773999997386, 2.639968299999964, 2.98432479999974, 3.216121999999814, 3.432028299999729]",,,,,,,,,,,,,,,,,,,,,,,,15,001,E,2023_Feb_08_1249,student_TT_local,2021.1.4,59.96904397918476,
,None,None,None,None,None,None,None,None,None,None,subdue,feudal,19.5,20.5,video&audio/matron_touch_edited.mp4,video&audio/Sentence3_touch_edited.mp4,matron,legion,None,,,,,,,,,,,,,,,,,,,,,,,,,,,0,1,1,26,,,,,,,,,,,,,,,,,,,,,,,,,,,,,,,,,,,,,,,,,,,,,,,None,,,None, matron,"['m', 'a', 't', 'r', 'o', 'n', 'return']","[0.9987008000007336, 1.1669787999999244, 1.542901000000711, 1.7508429999998043, 1.9348213000012038, 2.0949509000001854, 2.855365100000199]",,,,,,,,,,,,,,,,,,,,,,,,15,001,E,2023_Feb_08_1249,student_TT_local,2021.1.4,59.96904397918476,
,None,None,None,None,None,None,None,None,None,None,obsess,zephyr,6.5,7.5,video&audio/fusion_TT_3X.mp4,video&audio/sentence5_TT_3X.mp4,fusion,critic,None,,,,,,,,,,,,,,,,,,,,,,,,,,,0,2,2,10,,,,,,,,,,,,,,,,,,,,,,,,,,,,,,,,,,,,,,,,,,,,,,,None,,,None, fusion,"['f', 'u', 's', 'i', 'o', 'n', 'return']","[1.1927163000000292, 1.3847447999996803, 1.5769884000001184, 1.7929765000008047, 2.008712700000615, 2.976572199999282, 3.3208023000006506]",,,,,,,,,,,,,,,,,,,,,,,,15,001,E,2023_Feb_08_1249,student_TT_local,2021.1.4,59.96904397918476,
,"While you watch the video, imagine yourself typing the word on the screen, like how you did in the imagery practice. While you watch the video and imagine this, rest your hands on your keyboard but DO NOT type until AFTER you see the typing prompt.

Press 'enter/return' to go to the next page.","While watching the video, imagine yourself typing the word on the screen, like how you did in the imagery practice. While you watch the video and imagine this, rest your hands on your keyboard but DO NOT type until AFTER you see the typing prompt.

Press 'enter/return' to go to the next page.",video&audio/Example_AOMI_imagine.png,1.6,1,butter,6.5,7.5,video&audio/butter_TT_3X.mp4,video&audio/amount_TT_3X.mp4,ascend,metric,6.5,7.5,video&audio/eatery_TT_3X.mp4,video&audio/sentence2_TT_3X.mp4,eatery,plight,2 = AOMIgen,,,,,,,,,,,,,,,,,,,,,,,,,,,0,3,3,1,,,,,,,,,,,,,,,,,,,,,,,,,,,,,,,,,,,,,,,,,,,,,,,None,,,None, eatery,"['e', 'a', 't', 'e', 'r', 'y', 'return']","[1.1309150000015507, 1.299440800001321, 1.6994212000008702, 1.8031549000006635, 2.10754100000122, 2.4274209000013798, 2.9150999000012234]",,,,,,,,,,,,,,,,,,,,,,,,15,001,E,2023_Feb_08_1249,student_TT_local,2021.1.4,59.96904397918476,
,None,None,None,None,None,None,None,None,None,None,cervix,cobble,19.5,20.5,video&audio/export_touch_edited.mp4,video&audio/Sentence2_touch_edited.mp4,export,savant,None,,,,,,,,,,,,,,,,,,,,,,,,,,,0,4,4,19,,,,,,,,,,,,,,,,,,,,,,,,,,,,,,,,,,,,,,,,,,,,,,,None,,,None, export,"['e', 'x', 'p', 'o', 'r', 't', 'return']","[1.1067524999998568, 1.5065432000010333, 1.9949145999999018, 2.202664399999776, 2.4585452000010264, 2.6745172000009916, 2.8105015000001004]",,,,,,,,,,,,,,,,,,,,,,,,15,001,E,2023_Feb_08_1249,student_TT_local,2021.1.4,59.96904397918476,
,"Remember to type as QUICKLY and ACCURATELY as possible after the 'get ready' prompt.

Ask the experimenter any questions now. Please put on the headphones.

You will get one practice trial. Press 'enter/return' when you are ready to start the practice.","Remember to type as QUICKLY and ACCURATELY as you can after the 'get ready' prompt.

Ask the experimenter any questions now. Please put on the headphones.

You will get one practice trial. Press 'enter/return' when you are ready to start the practice.",video&audio/Example_AOMI_total.png,1.8,0.7,None,None,None,None,None,frugal,oppose,6.5,7.5,video&audio/ghetto_TT_3X.mp4,video&audio/sentence3_TT_3X.mp4,ghetto,jargon,None,,,,,,,,,,,,,,,,,,,,,,,,,,,0,5,5,2,,,,,,,,,,,,,,,,,,,,,,,,,,,,,,,,,,,,,,,,,,,,,,,None,,,None, ghetto,"['g', 'h', 'e', 't', 't', 'o', 'return']","[1.1906300999999075, 1.342476000001625, 1.5509238000013283, 1.8223738000015146, 2.022711400000844, 2.2064774000009493, 2.5663485000004584]",,,,,,,,,,,,,,,,,,,,,,,,15,001,E,2023_Feb_08_1249,student_TT_local,2021.1.4,59.96904397918476,
,None,None,None,None,None,None,None,None,None,None,debtor,output,19.5,20.5,video&audio/uphold_touch_edited.mp4,video&audio/Sentence1_touch_edited.mp4,uphold,pursue,None,,,,,,,,,,,,,,,,,,,,,,,,,,,0,6,6,18,,,,,,,,,,,,,,,,,,,,,,,,,,,,,,,,,,,,,,,,,,,,,,,None,,,None, uphold,"['u', 'p', 'h', 'o', 'l', 'd', 'return']","[1.336575899998934, 1.4011078999992606, 1.9288044999993872, 2.0646163999990677, 2.248541099999784, 2.4805081999984395, 2.7123787999989872]",,,,,,,,,,,,,,,,,,,,,,,,15,001,E,2023_Feb_08_1249,student_TT_local,2021.1.4,59.96904397918476,
,None,None,None,None,None,None,None,None,None,None,devise,mangle,19.5,20.5,video&audio/warble_touch_edited.mp4,video&audio/Sentence1_touch_edited.mp4,warble,fodder,None,,,,,,,,,,,,,,,,,,,,,,,,,,,0,7,7,24,,,,,,,,,,,,,,,,,,,,,,,,,,,,,,,,,,,,,,,,,,,,,,,None,,,None, warble,"['w', 'a', 'r', 'b', 'l', 'e', 'return']","[1.1025462999987212, 1.278872399998363, 1.566388299999744, 1.9265715000001364, 2.255516899998838, 2.4313114999986283, 2.6146379000001616]",,,,,,,,,,,,,,,,,,,,,,,,15,001,E,2023_Feb_08_1249,student_TT_local,2021.1.4,59.96904397918476,
,None,None,None,None,None,None,None,None,None,None,neural,septic,6.5,7.5,video&audio/innate_TT_3X.mp4,video&audio/sentence2_TT_3X.mp4,ordain,potent,None,,,,,,,,,,,,,,,,,,,,,,,,,,,0,8,8,13,,,,,,,,,,,,,,,,,,,,,,,,,,,,,,,,,,,,,,,,,,,,,,,None,,,None, ordain,"['o', 'r', 'd', 'a', 'i', 'n', 'return']","[1.0852998000009393, 1.2854302000014286, 1.589088199998514, 1.6616925000016636, 1.869410399998742, 1.965174199998728, 2.333153499999753]",,,,,,,,,,,,,,,,,,,,,,,,15,001,E,2023_Feb_08_1249,student_TT_local,2021.1.4,59.96904397918476,
,None,None,None,None,None,None,None,None,None,None,subtle,fungal,19.5,20.5,video&audio/mucous_touch_edited.mp4,video&audio/Sentence5_touch_edited.mp4,mucous,musket,None,,,,,,,,,,,,,,,,,,,,,,,,,,,0,9,9,22,,,,,,,,,,,,,,,,,,,,,,,,,,,,,,,,,,,,,,,,,,,,,,,None,,,None, mucous,"['m', 'u', 'c', 'o', 'u', 's', 'return']","[1.10748969999986, 1.4272858999975142, 1.6833189999997558, 2.0996358999982476, 2.1722671999996237, 2.395624599997973, 3.347218700000667]",,,,,,,,,,,,,,,,,,,,,,,,15,001,E,2023_Feb_08_1249,student_TT_local,2021.1.4,59.96904397918476,
,None,None,None,None,None,None,None,None,None,None,covert,patent,6.5,7.5,video&audio/defame_TT_3X.mp4,video&audio/sentence6_TT_3X.mp4,defame,quarry,None,,,,,,,,,,,,,,,,,,,,,,,,,,,0,10,10,11,,,,,,,,,,,,,,,,,,,,,,,,,,,,,,,,,,,,,,,,,,,,,,,None,,,None, defame,"['d', 'e', 'f', 'a', 'm', 'e', 'return']","[1.0436871000019892, 1.1717486000015924, 1.3954659000009997, 1.5398752000000968, 1.7155227000002924, 1.8996808000010788, 2.099566299999424]",,,,,,,,,,,,,,,,,,,,,,,,15,001,E,2023_Feb_08_1249,student_TT_local,2021.1.4,59.96904397918476,
,None,None,None,None,None,None,None,None,None,None,belfry,girdle,19.5,20.5,video&audio/linear_touch_edited.mp4,video&audio/Sentence6_touch_edited.mp4,linear,impose,None,,,,,,,,,,,,,,,,,,,,,,,,,,,0,11,11,23,,,,,,,,,,,,,,,,,,,,,,,,,,,,,,,,,,,,,,,,,,,,,,,None,,,None, linear,"['l', 'i', 'n', 'e', 'a', 'r', 'return']","[1.2193133999971906, 1.3313917999985279, 1.6599543999982416, 1.8831138999994437, 1.98822029999792, 2.171941299999162, 2.3155421999981627]",,,,,,,,,,,,,,,,,,,,,,,,15,001,E,2023_Feb_08_1249,student_TT_local,2021.1.4,59.96904397918476,
,None,None,None,None,None,None,None,None,None,None,parcel,primal,6.5,7.5,video&audio/entail_TT_3X.mp4,video&audio/sentence5_TT_3X.mp4,entail,novice,None,,,,,,,,,,,,,,,,,,,,,,,,,,,0,12,12,4,,,,,,,,,,,,,,,,,,,,,,,,,,,,,,,,,,,,,,,,,,,,,,,None,,,None, entail,"['e', 'n', 't', 'a', 'i', 'l', 'return']","[0.9934988000022713, 1.1605770000023767, 1.4405492000005324, 1.5686134999996284, 1.7525137000011455, 1.9767342000013741, 2.280631400000857]",,,,,,,,,,,,,,,,,,,,,,,,15,001,E,2023_Feb_08_1249,student_TT_local,2021.1.4,59.96904397918476,
,None,None,None,None,None,None,None,None,None,None,jackal,hamlet,6.5,7.5,video&audio/shroud_TT_3X.mp4,video&audio/sentence4_TT_3X.mp4,shroud,sherry,None,,,,,,,,,,,,,,,,,,,,,,,,,,,0,13,13,9,,,,,,,,,,,,,,,,,,,,,,,,,,,,,,,,,,,,,,,,,,,,,,,None,,,None, shroud,"['s', 'h', 'r', 'o', 'u', 'd', 'return']","[1.1497998000013467, 1.317247100003442, 1.613204000001133, 1.781371200002468, 1.8614251000035438, 2.05369850000352, 2.253323500000988]",,,,,,,,,,,,,,,,,,,,,,,,15,001,E,2023_Feb_08_1249,student_TT_local,2021.1.4,59.96904397918476,
,None,None,None,None,None,None,None,None,None,None,malady,shrewd,6.5,7.5,video&audio/revoke_TT_3X.mp4,video&audio/sentence1_TT_3X.mp4,revoke,mirage,None,,,,,,,,,,,,,,,,,,,,,,,,,,,0,14,14,6,,,,,,,,,,,,,,,,,,,,,,,,,,,,,,,,,,,,,,,,,,,,,,,None,,,None, revoke,"['r', 'e', 'v', 'o', 'k', 'e', 'return']","[0.8086526000006415, 0.8719635999987077, 1.2727469000019482, 1.5046532999986084, 1.5599260999988473, 1.7599397000012686, 1.9362466999991739]",,,,,,,,,,,,,,,,,,,,,,,,15,001,E,2023_Feb_08_1249,student_TT_local,2021.1.4,59.96904397918476,
,None,None,None,None,None,None,None,None,None,None,cortex,induce,19.5,20.5,video&audio/mussel_touch_edited.mp4,video&audio/Sentence4_touch_edited.mp4,mussel,satire,None,,,,,,,,,,,,,,,,,,,,,,,,,,,0,15,15,21,,,,,,,,,,,,,,,,,,,,,,,,,,,,,,,,,,,,,,,,,,,,,,,None,,,None, mussel,"['m', 'u', 's', 'e', 'backspace', 's', 'e', 'l', 'return']","[0.9495193000002473, 1.2614895000006072, 1.4616227000005892, 1.90973060000033, 2.5897156999999424, 2.8292099999998754, 2.9730739000005997, 3.382725700001174, 3.605764399999316]",,,,,,,,,,,,,,,,,,,,,,,,15,001,E,2023_Feb_08_1249,student_TT_local,2021.1.4,59.96904397918476,
,None,None,None,None,None,None,None,None,None,None,tariff,delude,6.5,7.5,video&audio/galley_TT_3X.mp4,video&audio/sentence2_TT_3X.mp4,galley,strife,None,,,,,,,,,,,,,,,,,,,,,,,,,,,0,16,16,7,,,,,,,,,,,,,,,,,,,,,,,,,,,,,,,,,,,,,,,,,,,,,,,None,,,None, galley,"['g', 'a', 'l', 'l', 'e', 'y', 'return']","[0.9473011999980372, 1.0274191999997129, 1.2838043000010657, 1.4194425999994564, 1.6835699000002933, 1.835503599999356, 2.1084239999981946]",,,,,,,,,,,,,,,,,,,,,,,,15,001,E,2023_Feb_08_1249,student_TT_local,2021.1.4,59.96904397918476,
,None,None,None,None,None,None,None,None,None,None,hippie,hearth,6.5,7.5,video&audio/herbal_TT_3X.mp4,video&audio/sentence3_TT_3X.mp4,herbal,deduct,None,,,,,,,,,,,,,,,,,,,,,,,,,,,0,17,17,14,,,,,,,,,,,,,,,,,,,,,,,,,,,,,,,,,,,,,,,,,,,,,,,None,,,None, herbal,"['h', 'e', 'r', 'b', 'a', 'l', 'return']","[0.9231363999970199, 1.0914959000001545, 1.3150325999995403, 1.555841800000053, 1.7632524999971793, 1.947172000000137, 2.2670760999972117]",,,,,,,,,,,,,,,,,,,,,,,,15,001,E,2023_Feb_08_1249,student_TT_local,2021.1.4,59.96904397918476,
,None,None,None,None,None,None,None,None,None,None,plasma,jailer,19.5,20.5,video&audio/nettle_touch_edited.mp4,video&audio/Sentence5_touch_edited.mp4,nettle,convoy,None,,,,,,,,,,,,,,,,,,,,,,,,,,,0,18,18,16,,,,,,,,,,,,,,,,,,,,,,,,,,,,,,,,,,,,,,,,,,,,,,,None,,,None, nettle,"['n', 'e', 't', 't', 'l', 'e', 'return']","[0.9993094999990717, 1.1744021999984398, 1.4544428999979573, 1.6064421999981278, 1.7505356000001484, 1.8705191999979434, 2.030789199998253]",,,,,,,,,,,,,,,,,,,,,,,,15,001,E,2023_Feb_08_1249,student_TT_local,2021.1.4,59.96904397918476,
,None,None,None,None,None,None,None,None,None,None,forage,campus,19.5,20.5,video&audio/allure_touch_edited.mp4,video&audio/Sentence6_touch_edited.mp4,allure,binder,None,,,,,,,,,,,,,,,,,,,,,,,,,,,0,19,19,29,,,,,,,,,,,,,,,,,,,,,,,,,,,,,,,,,,,,,,,,,,,,,,,None,,,None, allure,"['a', 'l', 'l', 'u', 'r', 'e', 'return']","[1.2589434000001347, 1.5309078999998746, 1.6661912000017765, 1.978230299999268, 2.130452100002003, 2.2021574999998847, 2.338474700001825]",,,,,,,,,,,,,,,,,,,,,,,,15,001,E,2023_Feb_08_1249,student_TT_local,2021.1.4,59.96904397918476,
,None,None,None,None,None,None,None,None,None,None,confer,innate,6.5,7.5,video&audio/tamper_TT_3X.mp4,video&audio/sentence1_TT_3X.mp4,tamper,sonnet,None,,,,,,,,,,,,,,,,,,,,,,,,,,,0,20,20,12,,,,,,,,,,,,,,,,,,,,,,,,,,,,,,,,,,,,,,,,,,,,,,,None,,,None, tamper,"['t', 'a', 'm', 'p', 'e', 'r', 'return']","[0.8121718999973382, 0.90860690000045, 1.0762240000003658, 1.3084072999990894, 1.4602730000005977, 1.580623399997421, 1.7328969999980472]",,,,,,,,,,,,,,,,,,,,,,,,15,001,E,2023_Feb_08_1249,student_TT_local,2021.1.4,59.96904397918476,
,None,None,None,None,None,None,None,None,None,None,ritual,clergy,19.5,20.5,video&audio/portal_touch_edited.mp4,video&audio/Sentence6_touch_edited.mp4,portal,murmur,None,,,,,,,,,,,,,,,,,,,,,,,,,,,0,21,21,17,,,,,,,,,,,,,,,,,,,,,,,,,,,,,,,,,,,,,,,,,,,,,,,None,,,None, portal,"['p', 'o', 'r', 't', 'l', 'return']","[0.9955083000022569, 1.0831636000002618, 1.3073844000027748, 1.523240700000315, 1.7714101000019582, 1.979291200001171]",,,,,,,,,,,,,,,,,,,,,,,,15,001,E,2023_Feb_08_1249,student_TT_local,2021.1.4,59.96904397918476,
,None,None,None,None,None,None,None,None,None,None,virile,joiner,6.5,7.5,video&audio/apathy_TT_3X.mp4,video&audio/sentence6_TT_3X.mp4,apathy,revolt,None,,,,,,,,,,,,,,,,,,,,,,,,,,,0,22,22,5,,,,,,,,,,,,,,,,,,,,,,,,,,,,,,,,,,,,,,,,,,,,,,,None,,,None, apathy,"['a', 'p', 'a', 't', 'h', 'y', 'return']","[0.8849786000027962, 1.1325332000014896, 1.2846987000011723, 1.668854999999894, 1.7966357000004791, 1.9892620000027819, 2.3167029000032926]",,,,,,,,,,,,,,,,,,,,,,,,15,001,E,2023_Feb_08_1249,student_TT_local,2021.1.4,59.96904397918476,
,None,None,None,None,None,None,None,None,None,None,picket,parish,19.5,20.5,video&audio/gullet_touch_edited.mp4,video&audio/Sentence5_touch_edited.mp4,gullet,manure,None,,,,,,,,,,,,,,,,,,,,,,,,,,,0,23,23,28,,,,,,,,,,,,,,,,,,,,,,,,,,,,,,,,,,,,,,,,,,,,,,,None,,,None, gullet,"['g', 'u', 'l', 'l', 'e', 't', 'return']","[1.1024940000024799, 1.2948096000000078, 1.7579777000028116, 1.8938809999999648, 2.0298290999999153, 2.14205480000237, 2.2784621000027983]",,,,,,,,,,,,,,,,,,,,,,,,15,001,E,2023_Feb_08_1249,student_TT_local,2021.1.4,59.96904397918476,
,None,None,None,None,None,None,None,None,None,None,piston,caviar,19.5,20.5,video&audio/shrill_touch_edited.mp4,video&audio/Sentence3_touch_edited.mp4,shrill,brazen,None,,,,,,,,,,,,,,,,,,,,,,,,,,,0,24,24,20,,,,,,,,,,,,,,,,,,,,,,,,,,,,,,,,,,,,,,,,,,,,,,,None,,,None, shrill,"['s', 'h', 'r', 'i', 'l', 'l', 'return']","[1.0070866999994905, 1.237959399997635, 1.4622653999977047, 1.6463699999985693, 1.998115799997322, 2.1428710000000137, 2.7179009999999835]",,,,,,,,,,,,,,,,,,,,,,,,15,001,E,2023_Feb_08_1249,student_TT_local,2021.1.4,59.96904397918476,
,None,None,None,None,None,None,None,None,None,None,kipper,meddle,19.5,20.5,video&audio/divert_touch_edited.mp4,video&audio/Sentence2_touch_edited.mp4,divert,upkeep,None,,,,,,,,,,,,,,,,,,,,,,,,,,,0,25,25,25,,,,,,,,,,,,,,,,,,,,,,,,,,,,,,,,,,,,,,,,,,,,,,,None,,,None, sivert,"['s', 'i', 'v', 'e', 'r', 't', 'return']","[1.0658229000000574, 1.1947958999990078, 1.4666670999977214, 1.6821500999976706, 1.8015390999971714, 2.0028118999980506, 2.194581699997798]",,,,,,,,,,,,,,,,,,,,,,,,15,001,E,2023_Feb_08_1249,student_TT_local,2021.1.4,59.96904397918476,
,None,None,None,None,None,None,None,None,None,None,botany,trench,19.5,20.5,video&audio/ethnic_touch_edited.mp4,video&audio/Sentence4_touch_edited.mp4,ethnic,goblet,None,,,,,,,,,,,,,,,,,,,,,,,,,,,0,26,26,27,,,,,,,,,,,,,,,,,,,,,,,,,,,,,,,,,,,,,,,,,,,,,,,None,,,None, ethnic,"['e', 't', 'h', 'n', 'i', 'c', 'return']","[1.2029096000005666, 1.306942799998069, 1.5867016999982297, 1.8184115000003658, 2.0024443000002066, 2.1382515000004787, 2.5227588999987347]",,,,,,,,,,,,,,,,,,,,,,,,15,001,E,2023_Feb_08_1249,student_TT_local,2021.1.4,59.96904397918476,
,"This is Section 2.

In this section, your task will be the same as before - that is, to type the word you see on the screen after the typing prompt. However, rather than just seeing the word before typing, you will also see a video of someone typing the same word you will need to type at various speeds. 

Press 'enter/return' to go to the next page.","This is Section 4. 

In this section, your task will be the same as before - that is, to type the word you see on the screen after the typing prompt. You will see a video again, like in Section 2, only this time, the video will show someone typing different words to what you must type at various speeds. 

Press 'enter/return' to go to the next page.",video&audio/Example_AOMI_layout.png,1.6,0.6,afford,19.5,20.5,video&audio/afford_touch_edited.mp4,video&audio/amount_touch_edited.mp4,matrix,hinder,6.5,7.5,video&audio/breach_TT_3X.mp4,video&audio/sentence1_TT_3X.mp4,breach,vanity,1 = AOMIspec,,,,,,,,,,,,,,,,,,,,,,,,,,,0,27,27,0,,,,,,,,,,,,,,,,,,,,,,,,,,,,,,,,,,,,,,,,,,,,,,,None,,,None, breach,"['b', 'r', 'e', 'a', 'c', 'h', 'return']","[1.0996259999992617, 1.2596757999999681, 1.3637171000009403, 1.5242490999989968, 1.6912516000011237, 1.8193510999990394, 2.115176100000099]",,,,,,,,,,,,,,,,,,,,,,,,15,001,E,2023_Feb_08_1249,student_TT_local,2021.1.4,59.96904397918476,
,None,None,None,None,None,None,None,None,None,None,falter,tandem,19.5,20.5,video&audio/origin_touch_edited.mp4,video&audio/Sentence4_touch_edited.mp4,origin,coerce,None,,,,,,,,,,,,,,,,,,,,,,,,,,,0,28,28,15,,,,,,,,,,,,,,,,,,,,,,,,,,,,,,,,,,,,,,,,,,,,,,,None,,,None, origin,"['o', 'r', 'i', 'g', 'i', 'n', 'return']","[1.0064677999980631, 1.2627147999992303, 1.46318489999976, 1.7188826999990852, 1.822752699998091, 2.046398999998928, 2.3745968000002904]",,,,,,,,,,,,,,,,,,,,,,,,15,001,E,2023_Feb_08_1249,student_TT_local,2021.1.4,59.96904397918476,
,None,None,None,None,None,None,None,None,None,None,solemn,befall,6.5,7.5,video&audio/ration_TT_3X.mp4,video&audio/sentence3_TT_3X.mp4,ration,parole,None,,,,,,,,,,,,,,,,,,,,,,,,,,,0,29,29,8,,,,,,,,,,,,,,,,,,,,,,,,,,,,,,,,,,,,,,,,,,,,,,,None,,,None, ration,"['r', 'a', 't', 'i', 'o', 'n', 'return']","[1.0045682999989367, 1.116615399998409, 1.2686871999976574, 1.4846546999979182, 1.5649989999983518, 1.7810948000005737, 2.1085559999992256]",,,,,,,,,,,,,,,,,,,,,,,,15,001,E,2023_Feb_08_1249,student_TT_local,2021.1.4,59.96904397918476,
,,,,,,,,,,,,,,,,,,,,typingRatingScale.png,"How would you rate your typing performance in the previous section?

Press a number on your keyboard according to the rating scale below to give your answer. Your first answer will be accepted.",,,,,,,,,,,,,,,,,,,,,,,,,,,,,0,0,0,0,,,,,,,,,,,,,,,,,,,,,,,,,,,,,,,,,,,,,,,,,,,,,,,,,,['3'],[5.030626600000687],,,,,,,,,,,,,,,,,,,,,,15,001,E,2023_Feb_08_1249,student_TT_local,2021.1.4,59.96904397918476,
,,,,,,,,,,,,,,,,,,,,visualImageryScale.png,"While imagining yourself typing, how clear was your visual image?

Press a number on your keyboard according to the rating scale below to give your answer. Your first answer will be accepted.",,,,,,,,,,,,,,,,,,,,,,,,,,,,,0,1,1,1,,,,,,,,,,,,,,,,,,,,,,,,,,,,,,,,,,,,,,,,,,,,,,,,,,['2'],[6.73115289999987],,,,,,,,,,,,,,,,,,,,,,15,001,E,2023_Feb_08_1249,student_TT_local,2021.1.4,59.96904397918476,
,,,,,,,,,,,,,,,,,,,,kinestheticImageryScale.png,"While imagining yourself typing, how intense were the sensations associated with the imagined movement?

Press a number on your keyboard according to the rating scale below to give your answer. Your first answer will be accepted.",,,,,,,,,,,,,,,,,,,,,,,,,,,,,0,2,2,2,,,,,,,,,,,,,,,,,,,,,,,,,,,,,,,,,,,,,,,,,,,,,,,,,,['3'],[4.804196699999011],,,,,,,,,,,,,,,,,,,,,,15,001,E,2023_Feb_08_1249,student_TT_local,2021.1.4,59.96904397918476,
,None,None,None,None,None,None,None,None,None,None,hippie,hearth,6.5,7.5,video&audio/herbal_TT_3X.mp4,video&audio/sentence3_TT_3X.mp4,herbal,deduct,None,,,,,,,,,,,,,,,,,,,,,,,,,,,,,,,,,,,,,,,,,,,0,0,0,14,,,,,,,,,,,,,,,,,,,,,,,,,,,,,,,,,,,,,,,,3885.180757799999,3891.6910245000017,None, butter,"['b', 'u', 't', 't', 'e', 'r', 'return']","[0.9467722000008507, 1.2821383999980753, 1.674233899997489, 1.8430173999986437, 1.9861968000004708, 2.1152130999980727, 2.226891499998601]",3913.1090993999987,3919.6300017000012,None, hearth,"['h', 'e', 'a', 'r', 't', 'h', 'return']","[0.9119556000005105, 1.0409776999986207, 1.136342699999659, 1.4161679999997432, 1.7202601999997569, 1.9920032000009087, 2.1921245000012277]",,,,,,,,,,15,001,E,2023_Feb_08_1249,student_TT_local,2021.1.4,59.96904397918476,
,None,None,None,None,None,None,None,None,None,None,ritual,clergy,19.5,20.5,video&audio/portal_touch_edited.mp4,video&audio/Sentence6_touch_edited.mp4,portal,murmur,None,,,,,,,,,,,,,,,,,,,,,,,,,,,,,,,,,,,,,,,,,,,0,1,1,17,,,,,,,,,,,,,,,,,,,,,,,,,,,,,,,,,,,,,,,,,,,,,,3922.8451256999997,3942.3618628999993,None, clergy,"['c', 'l', 'e', 'r', 'g', 'y', 'return']","[1.2180950000001758, 1.5220412999988184, 1.7211796000010509, 1.96942190000118, 2.19333639999968, 2.4737406999993254, 3.06590850000066]",,,,,,,,,,15,001,E,2023_Feb_08_1249,student_TT_local,2021.1.4,59.96904397918476,
,None,None,None,None,None,None,None,None,None,None,neural,septic,6.5,7.5,video&audio/innate_TT_3X.mp4,video&audio/sentence2_TT_3X.mp4,ordain,potent,None,,,,,,,,,,,,,,,,,,,,,,,,,,,,,,,,,,,,,,,,,,,0,2,2,13,,,,,,,,,,,,,,,,,,,,,,,,,,,,,,,,,,,,,,,,,,,,,,3946.4636850000006,3952.971952599999,None, septic,"['s', 'e', 'p', 't', 'i', 'c', 'return']","[0.9845628000002762, 1.0887298000016017, 1.2803421999997227, 1.448676300002262, 1.648688500001299, 1.7608952000009594, 2.2483667000014975]",,,,,,,,,,15,001,E,2023_Feb_08_1249,student_TT_local,2021.1.4,59.96904397918476,
,None,None,None,None,None,None,None,None,None,None,botany,trench,19.5,20.5,video&audio/ethnic_touch_edited.mp4,video&audio/Sentence4_touch_edited.mp4,ethnic,goblet,None,,,,,,,,,,,,,,,,,,,,,,,,,,,,,,,,,,,,,,,,,,,0,3,3,27,,,,,,,,,,,,,,,,,,,,,,,,,,,,,,,,,,,,,,,,,,,,,,3956.2581698000013,3975.776761400002,None, trench,"['t', 'e', 'r', 'backspace', 'backspace', 'r', 'e', 'n', 'c', 'h', 'return']","[1.2307057999969402, 1.3984644999982265, 1.4630662999989, 2.198435599999357, 2.3746006000001216, 2.6303934999996272, 2.69439599999896, 2.9270521999969787, 3.103167299999768, 3.2624113999991096, 3.5664293999980146]",,,,,,,,,,15,001,E,2023_Feb_08_1249,student_TT_local,2021.1.4,59.96904397918476,
,None,None,None,None,None,None,None,None,None,None,devise,mangle,19.5,20.5,video&audio/warble_touch_edited.mp4,video&audio/Sentence1_touch_edited.mp4,warble,fodder,None,,,,,,,,,,,,,,,,,,,,,,,,,,,,,,,,,,,,,,,,,,,0,4,4,24,,,,,,,,,,,,,,,,,,,,,,,,,,,,,,,,,,,,,,,,,,,,,,3980.3786633,3999.8848221999997,None, mangle,"['m', 'a', 'n', 'g', 'l', 'e', 'return']","[1.105148000002373, 1.2016226000014285, 1.3610136000024795, 1.7611534999996366, 1.9377322000000277, 2.0338651000020036, 2.6417672999996284]",,,,,,,,,,15,001,E,2023_Feb_08_1249,student_TT_local,2021.1.4,59.96904397918476,
,None,None,None,None,None,None,None,None,None,None,tariff,delude,6.5,7.5,video&audio/galley_TT_3X.mp4,video&audio/sentence2_TT_3X.mp4,galley,strife,None,,,,,,,,,,,,,,,,,,,,,,,,,,,,,,,,,,,,,,,,,,,0,5,5,7,,,,,,,,,,,,,,,,,,,,,,,,,,,,,,,,,,,,,,,,,,,,,,4003.560766700002,4010.066483299999,None, delude,"['d', 'e', 'l', 'u', 'd', 'e', 'return']","[0.9811024999980873, 1.0689034999995783, 1.2122584999997343, 1.4601187000007485, 1.6043209999988903, 1.6761084999998275, 2.1170744000010018]",,,,,,,,,,15,001,E,2023_Feb_08_1249,student_TT_local,2021.1.4,59.96904397918476,
,None,None,None,None,None,None,None,None,None,None,picket,parish,19.5,20.5,video&audio/gullet_touch_edited.mp4,video&audio/Sentence5_touch_edited.mp4,gullet,manure,None,,,,,,,,,,,,,,,,,,,,,,,,,,,,,,,,,,,,,,,,,,,0,6,6,28,,,,,,,,,,,,,,,,,,,,,,,,,,,,,,,,,,,,,,,,,,,,,,4013.2269306,4032.7325113999996,None, parish,"['p', 'a', 'r', 'i', 's', 'h', 'return']","[1.3558654999978899, 1.4761087999977462, 1.6363894999994955, 1.844114700001228, 1.9566578000012669, 2.459718599999178, 2.8121475000007194]",,,,,,,,,,15,001,E,2023_Feb_08_1249,student_TT_local,2021.1.4,59.96904397918476,
,None,None,None,None,None,None,None,None,None,None,falter,tandem,19.5,20.5,video&audio/origin_touch_edited.mp4,video&audio/Sentence4_touch_edited.mp4,origin,coerce,None,,,,,,,,,,,,,,,,,,,,,,,,,,,,,,,,,,,,,,,,,,,0,7,7,15,,,,,,,,,,,,,,,,,,,,,,,,,,,,,,,,,,,,,,,,,,,,,,4036.576960299999,4056.081024500001,None, tandem,"['t', 'a', 'n', 'd', 'e', 'm', 'return']","[1.016897000001336, 1.112124600000243, 1.2801472000028298, 1.6011243000029936, 1.680455300000176, 1.8402929000003496, 2.376257900003111]",,,,,,,,,,15,001,E,2023_Feb_08_1249,student_TT_local,2021.1.4,59.96904397918476,
,None,None,None,None,None,None,None,None,None,None,belfry,girdle,19.5,20.5,video&audio/linear_touch_edited.mp4,video&audio/Sentence6_touch_edited.mp4,linear,impose,None,,,,,,,,,,,,,,,,,,,,,,,,,,,,,,,,,,,,,,,,,,,0,8,8,23,,,,,,,,,,,,,,,,,,,,,,,,,,,,,,,,,,,,,,,,,,,,,,4059.5063333000016,4079.0302686000014,None, girdle,"['g', 'i', 'r', 'd', 'l', 'e', 'return']","[1.2212499000015669, 1.3409351000009337, 1.4451961000013398, 1.8690156000011484, 2.021199999999226, 2.133492100001604, 2.6768813999988197]",,,,,,,,,,15,001,E,2023_Feb_08_1249,student_TT_local,2021.1.4,59.96904397918476,
,None,None,None,None,None,None,None,None,None,None,subdue,feudal,19.5,20.5,video&audio/matron_touch_edited.mp4,video&audio/Sentence3_touch_edited.mp4,matron,legion,None,,,,,,,,,,,,,,,,,,,,,,,,,,,,,,,,,,,,,,,,,,,0,9,9,26,,,,,,,,,,,,,,,,,,,,,,,,,,,,,,,,,,,,,,,,,,,,,,4082.7381594000017,4102.2547435,None, feudal,"['f', 'e', 'u', 'd', 'a', 'l', 'return']","[1.0810467000010249, 1.1926880999999412, 1.4647865000006277, 1.872886400000425, 1.9851782000005187, 2.5372175999982574, 2.8331901999990805]",,,,,,,,,,15,001,E,2023_Feb_08_1249,student_TT_local,2021.1.4,59.96904397918476,
,None,None,None,None,None,None,None,None,None,None,malady,shrewd,6.5,7.5,video&audio/revoke_TT_3X.mp4,video&audio/sentence1_TT_3X.mp4,revoke,mirage,None,,,,,,,,,,,,,,,,,,,,,,,,,,,,,,,,,,,,,,,,,,,0,10,10,6,,,,,,,,,,,,,,,,,,,,,,,,,,,,,,,,,,,,,,,,,,,,,,4228.7927597,4235.314907900001,None, shrewd,"['s', 'h', 'r', 'e', 'w', 'd', 'return']","[0.7153122999989137, 0.8840928999998141, 1.1392773000006855, 1.2197023999979137, 1.7072174999993877, 1.9325336000001698, 2.515329499998188]",,,,,,,,,,15,001,E,2023_Feb_08_1249,student_TT_local,2021.1.4,59.96904397918476,
,None,None,None,None,None,None,None,None,None,None,jackal,hamlet,6.5,7.5,video&audio/shroud_TT_3X.mp4,video&audio/sentence4_TT_3X.mp4,shroud,sherry,None,,,,,,,,,,,,,,,,,,,,,,,,,,,,,,,,,,,,,,,,,,,0,11,11,9,,,,,,,,,,,,,,,,,,,,,,,,,,,,,,,,,,,,,,,,,,,,,,4238.865843100002,4245.3733649000005,None, hamlet,"['h', 'a', 'm', 'l', 'e', 't', 'return']","[1.0650934000004781, 1.1853854000000865, 1.4496796000021277, 1.8171337000021595, 1.9694170000002487, 2.257563499999378, 2.6580090999996173]",,,,,,,,,,15,001,E,2023_Feb_08_1249,student_TT_local,2021.1.4,59.96904397918476,
,None,None,None,None,None,None,None,None,None,None,covert,patent,6.5,7.5,video&audio/defame_TT_3X.mp4,video&audio/sentence6_TT_3X.mp4,defame,quarry,None,,,,,,,,,,,,,,,,,,,,,,,,,,,,,,,,,,,,,,,,,,,0,12,12,11,,,,,,,,,,,,,,,,,,,,,,,,,,,,,,,,,,,,,,,,,,,,,,4249.071882000002,4255.574342599999,None, patent,"['p', 'a', 't', 'e', 'n', 't', 'return']","[1.4579348000006576, 1.5621596999990288, 1.9137000999980955, 2.0176814000005834, 2.2339968999986013, 2.378325900001073, 2.9221360000010463]",,,,,,,,,,15,001,E,2023_Feb_08_1249,student_TT_local,2021.1.4,59.96904397918476,
,None,None,None,None,None,None,None,None,None,None,plasma,jailer,19.5,20.5,video&audio/nettle_touch_edited.mp4,video&audio/Sentence5_touch_edited.mp4,nettle,convoy,None,,,,,,,,,,,,,,,,,,,,,,,,,,,,,,,,,,,,,,,,,,,0,13,13,16,,,,,,,,,,,,,,,,,,,,,,,,,,,,,,,,,,,,,,,,,,,,,,4259.531439700002,4279.0364197,None, jailer,"['j', 'a', 'i', 'l', 'e', 'r', 'return']","[0.7927870000021358, 0.9043176000013773, 1.0082609999990382, 1.2242451000020083, 1.3682947000015702, 1.4649587999992946, 1.9603898999994271]",,,,,,,,,,15,001,E,2023_Feb_08_1249,student_TT_local,2021.1.4,59.96904397918476,
,"While you watch the video, imagine yourself typing the word on the screen, like how you did in the imagery practice. While you watch the video and imagine this, rest your hands on your keyboard but DO NOT type until AFTER you see the typing prompt.

Press 'enter/return' to go to the next page.","While watching the video, imagine yourself typing the word on the screen, like how you did in the imagery practice. While you watch the video and imagine this, rest your hands on your keyboard but DO NOT type until AFTER you see the typing prompt.

Press 'enter/return' to go to the next page.",video&audio/Example_AOMI_imagine.png,1.6,1,butter,6.5,7.5,video&audio/butter_TT_3X.mp4,video&audio/amount_TT_3X.mp4,ascend,metric,6.5,7.5,video&audio/eatery_TT_3X.mp4,video&audio/sentence2_TT_3X.mp4,eatery,plight,2 = AOMIgen,,,,,,,,,,,,,,,,,,,,,,,,,,,,,,,,,,,,,,,,,,,0,14,14,1,,,,,,,,,,,,,,,,,,,,,,,,,,,,,,,,,,,,,,,,,,,,,,4282.043702600002,4288.562102500002,None, metric,"['e', 't', 'r', 'i', 'c', 'return']","[1.600386599999183, 1.7841238000000885, 2.0006733000009262, 2.1999632000006386, 2.3276160999994318, 2.6569205000014335]",,,,,,,,,,15,001,E,2023_Feb_08_1249,student_TT_local,2021.1.4,59.96904397918476,
,None,None,None,None,None,None,None,None,None,None,parcel,primal,6.5,7.5,video&audio/entail_TT_3X.mp4,video&audio/sentence5_TT_3X.mp4,entail,novice,None,,,,,,,,,,,,,,,,,,,,,,,,,,,,,,,,,,,,,,,,,,,0,15,15,4,,,,,,,,,,,,,,,,,,,,,,,,,,,,,,,,,,,,,,,,,,,,,,4292.255858400002,4298.771712600001,None, primal,"['p', 'r', 'i', 'm', 'a', 'l', 'return']","[1.1957471999994596, 1.4045111999985238, 1.6117908999985957, 1.8115714999985357, 1.908159099999466, 2.1079742000001715, 2.763599500001874]",,,,,,,,,,15,001,E,2023_Feb_08_1249,student_TT_local,2021.1.4,59.96904397918476,
,None,None,None,None,None,None,None,None,None,None,forage,campus,19.5,20.5,video&audio/allure_touch_edited.mp4,video&audio/Sentence6_touch_edited.mp4,allure,binder,None,,,,,,,,,,,,,,,,,,,,,,,,,,,,,,,,,,,,,,,,,,,0,16,16,29,,,,,,,,,,,,,,,,,,,,,,,,,,,,,,,,,,,,,,,,,,,,,,4302.577895600001,4322.091112,None, campus,"['c', 'a', 'm', 'p', 'u', 's', 'return']","[1.3997498999997333, 1.488170299999183, 1.6645065000011527, 1.8479189999998198, 2.111854400001903, 2.2247779999997874, 2.448034799999732]",,,,,,,,,,15,001,E,2023_Feb_08_1249,student_TT_local,2021.1.4,59.96904397918476,
,"Remember to type as QUICKLY and ACCURATELY as possible after the 'get ready' prompt.

Ask the experimenter any questions now. Please put on the headphones.

You will get one practice trial. Press 'enter/return' when you are ready to start the practice.","Remember to type as QUICKLY and ACCURATELY as you can after the 'get ready' prompt.

Ask the experimenter any questions now. Please put on the headphones.

You will get one practice trial. Press 'enter/return' when you are ready to start the practice.",video&audio/Example_AOMI_total.png,1.8,0.7,None,None,None,None,None,frugal,oppose,6.5,7.5,video&audio/ghetto_TT_3X.mp4,video&audio/sentence3_TT_3X.mp4,ghetto,jargon,None,,,,,,,,,,,,,,,,,,,,,,,,,,,,,,,,,,,,,,,,,,,0,17,17,2,,,,,,,,,,,,,,,,,,,,,,,,,,,,,,,,,,,,,,,,,,,,,,4325.570809400002,4332.0769528,None, oppose,"['o', 'p', 'p', 'o', 's', 'e', 'return']","[1.2779746000014711, 1.5094247000015457, 1.6535556000017095, 1.845350600000529, 1.9658037000008335, 2.125509299999976, 2.3420872000024247]",,,,,,,,,,15,001,E,2023_Feb_08_1249,student_TT_local,2021.1.4,59.96904397918476,
,None,None,None,None,None,None,None,None,None,None,pulpit,oblige,6.5,7.5,video&audio/mystic_TT_3X.mp4,video&audio/sentence4_TT_3X.mp4,mystic,infirm,None,,,,,,,,,,,,,,,,,,,,,,,,,,,,,,,,,,,,,,,,,,,0,18,18,3,,,,,,,,,,,,,,,,,,,,,,,,,,,,,,,,,,,,,,,,,,,,,,4335.472342499999,4341.9983452,None, oblige,"['o', 'b', 'l', 'i', 'g', 'e', 'return']","[1.1291692000013427, 1.3779196000032243, 1.5934050000032585, 1.8493995000026189, 2.2334066000003077, 2.2976517000024614, 2.793295900002704]",,,,,,,,,,15,001,E,2023_Feb_08_1249,student_TT_local,2021.1.4,59.96904397918476,
,None,None,None,None,None,None,None,None,None,None,kipper,meddle,19.5,20.5,video&audio/divert_touch_edited.mp4,video&audio/Sentence2_touch_edited.mp4,divert,upkeep,None,,,,,,,,,,,,,,,,,,,,,,,,,,,,,,,,,,,,,,,,,,,0,19,19,25,,,,,,,,,,,,,,,,,,,,,,,,,,,,,,,,,,,,,,,,,,,,,,4345.8271828000015,4365.3364021,None, meddle,"['m', 'e', 'd', 'd', 'l', 'e', 'return']","[0.932318099999975, 1.0927780000019993, 1.3723540999999386, 1.5407283999993524, 1.700478499999008, 1.8202621999989788, 2.0129328000002715]",,,,,,,,,,15,001,E,2023_Feb_08_1249,student_TT_local,2021.1.4,59.96904397918476,
,None,None,None,None,None,None,None,None,None,None,cortex,induce,19.5,20.5,video&audio/mussel_touch_edited.mp4,video&audio/Sentence4_touch_edited.mp4,mussel,satire,None,,,,,,,,,,,,,,,,,,,,,,,,,,,,,,,,,,,,,,,,,,,0,20,20,21,,,,,,,,,,,,,,,,,,,,,,,,,,,,,,,,,,,,,,,,,,,,,,4446.863964400001,4466.3702225,None, induce,"['i', 'n', 'd', 'u', 'c', 'e', 'return']","[1.7414906000012706, 1.9897219000013138, 2.6540185999983805, 2.8862417999989702, 2.9895856000002823, 3.0942136000012397, 3.3657113000008394]",,,,,,,,,,15,001,E,2023_Feb_08_1249,student_TT_local,2021.1.4,59.96904397918476,
,None,None,None,None,None,None,None,None,None,None,solemn,befall,6.5,7.5,video&audio/ration_TT_3X.mp4,video&audio/sentence3_TT_3X.mp4,ration,parole,None,,,,,,,,,,,,,,,,,,,,,,,,,,,,,,,,,,,,,,,,,,,0,21,21,8,,,,,,,,,,,,,,,,,,,,,,,,,,,,,,,,,,,,,,,,,,,,,,4470.7722312999995,4477.2807271,None, befall,"['b', 'e', 'f', 'a', 'l', 'l', 'return']","[1.4338687999988906, 1.5533209999994142, 1.7692304999982298, 1.8814123999982257, 2.1376737999999023, 2.273399199999403, 3.1216212999970594]",,,,,,,,,,15,001,E,2023_Feb_08_1249,student_TT_local,2021.1.4,59.96904397918476,
,None,None,None,None,None,None,None,None,None,None,cervix,cobble,19.5,20.5,video&audio/export_touch_edited.mp4,video&audio/Sentence2_touch_edited.mp4,export,savant,None,,,,,,,,,,,,,,,,,,,,,,,,,,,,,,,,,,,,,,,,,,,0,22,22,19,,,,,,,,,,,,,,,,,,,,,,,,,,,,,,,,,,,,,,,,,,,,,,4481.432948200001,4500.935283200002,None, cobble,"['c', 'o', 'b', 'b', 'l', 'e', 'return']","[1.1180132000008598, 1.2458952000015415, 1.533513700000185, 1.6860913000018627, 1.7973615000009886, 1.981623400002718, 2.1888768000026175]",,,,,,,,,,15,001,E,2023_Feb_08_1249,student_TT_local,2021.1.4,59.96904397918476,
,None,None,None,None,None,None,None,None,None,None,subtle,fungal,19.5,20.5,video&audio/mucous_touch_edited.mp4,video&audio/Sentence5_touch_edited.mp4,mucous,musket,None,,,,,,,,,,,,,,,,,,,,,,,,,,,,,,,,,,,,,,,,,,,0,23,23,22,,,,,,,,,,,,,,,,,,,,,,,,,,,,,,,,,,,,,,,,,,,,,,4504.1719044,4523.689933899999,None, fungal,"['f', 'u', 'n', 'g', 'a', 'l', 'return']","[1.1082587000018975, 1.356604900000093, 1.5800077999992936, 1.771991400000843, 1.884027200001583, 2.06073219999962, 2.5323443000015686]",,,,,,,,,,15,001,E,2023_Feb_08_1249,student_TT_local,2021.1.4,59.96904397918476,
,None,None,None,None,None,None,None,None,None,None,confer,innate,6.5,7.5,video&audio/tamper_TT_3X.mp4,video&audio/sentence1_TT_3X.mp4,tamper,sonnet,None,,,,,,,,,,,,,,,,,,,,,,,,,,,,,,,,,,,,,,,,,,,0,24,24,12,,,,,,,,,,,,,,,,,,,,,,,,,,,,,,,,,,,,,,,,,,,,,,4527.2527899,4533.7728988,None, innate,"['i', 'n', 'n', 'a', 't', 'e', 'return']","[0.9578962999985379, 1.261671500000375, 1.3660299000002851, 1.6382658000002266, 1.933666799999628, 2.0379379999976663, 2.3897957999979553]",,,,,,,,,,15,001,E,2023_Feb_08_1249,student_TT_local,2021.1.4,59.96904397918476,
,None,None,None,None,None,None,None,None,None,None,obsess,zephyr,6.5,7.5,video&audio/fusion_TT_3X.mp4,video&audio/sentence5_TT_3X.mp4,fusion,critic,None,,,,,,,,,,,,,,,,,,,,,,,,,,,,,,,,,,,,,,,,,,,0,25,25,10,,,,,,,,,,,,,,,,,,,,,,,,,,,,,,,,,,,,,,,,,,,,,,4537.201906799999,4543.7096994,None, zephyr,"['z', 'e', 'p', 'h', 'y', 'r', 'return']","[1.1924729999991541, 1.5286282999986724, 1.8250460999988718, 2.216592099997797, 2.4644353999974555, 2.7205826999997953, 3.1287541999990935]",,,,,,,,,,15,001,E,2023_Feb_08_1249,student_TT_local,2021.1.4,59.96904397918476,
,None,None,None,None,None,None,None,None,None,None,debtor,output,19.5,20.5,video&audio/uphold_touch_edited.mp4,video&audio/Sentence1_touch_edited.mp4,uphold,pursue,None,,,,,,,,,,,,,,,,,,,,,,,,,,,,,,,,,,,,,,,,,,,0,26,26,18,,,,,,,,,,,,,,,,,,,,,,,,,,,,,,,,,,,,,,,,,,,,,,4547.8754393,4567.382394000002,None, output,"['o', 'u', 't', 'o', 'u', 'backspace', 'backspace', 'p', 'u', 't', 'return']","[1.3424298999998427, 1.3983165999998164, 1.7746431000014127, 2.230029700000159, 2.3183394000006956, 3.0783830000000307, 3.238658000002033, 3.4700020000018412, 3.7582712000003085, 3.9269920000006096, 4.102141499999561]",,,,,,,,,,15,001,E,2023_Feb_08_1249,student_TT_local,2021.1.4,59.96904397918476,
,None,None,None,None,None,None,None,None,None,None,virile,joiner,6.5,7.5,video&audio/apathy_TT_3X.mp4,video&audio/sentence6_TT_3X.mp4,apathy,revolt,None,,,,,,,,,,,,,,,,,,,,,,,,,,,,,,,,,,,,,,,,,,,0,27,27,5,,,,,,,,,,,,,,,,,,,,,,,,,,,,,,,,,,,,,,,,,,,,,,4572.5118028000015,4579.0151303,None, joiner,"['j', 'o', 'i', 'n', 'e', 'r', 'return']","[1.173128499998711, 1.2524438000000373, 1.4845059999970545, 1.7243819999966945, 2.0928447999976925, 2.212956999999733, 2.6204909999978554]",,,,,,,,,,15,001,E,2023_Feb_08_1249,student_TT_local,2021.1.4,59.96904397918476,
,None,None,None,None,None,None,None,None,None,None,piston,caviar,19.5,20.5,video&audio/shrill_touch_edited.mp4,video&audio/Sentence3_touch_edited.mp4,shrill,brazen,None,,,,,,,,,,,,,,,,,,,,,,,,,,,,,,,,,,,,,,,,,,,0,28,28,20,,,,,,,,,,,,,,,,,,,,,,,,,,,,,,,,,,,,,,,,,,,,,,4582.6843751,4602.190654700002,None, caviar,"['c', 'a', 'v', 'i', 'a', 'r', 'return']","[0.9468071000010241, 1.0107404999980645, 1.2425302999981795, 1.5628823000006378, 1.6345737999981793, 1.803414599999087, 2.3308656999979576]",,,,,,,,,,15,001,E,2023_Feb_08_1249,student_TT_local,2021.1.4,59.96904397918476,
,"This is Section 2.

In this section, your task will be the same as before - that is, to type the word you see on the screen after the typing prompt. However, rather than just seeing the word before typing, you will also see a video of someone typing the same word you will need to type at various speeds. 

Press 'enter/return' to go to the next page.","This is Section 4. 

In this section, your task will be the same as before - that is, to type the word you see on the screen after the typing prompt. You will see a video again, like in Section 2, only this time, the video will show someone typing different words to what you must type at various speeds. 

Press 'enter/return' to go to the next page.",video&audio/Example_AOMI_layout.png,1.6,0.6,afford,19.5,20.5,video&audio/afford_touch_edited.mp4,video&audio/amount_touch_edited.mp4,matrix,hinder,6.5,7.5,video&audio/breach_TT_3X.mp4,video&audio/sentence1_TT_3X.mp4,breach,vanity,1 = AOMIspec,,,,,,,,,,,,,,,,,,,,,,,,,,,,,,,,,,,,,,,,,,,0,29,29,0,,,,,,,,,,,,,,,,,,,,,,,,,,,,,,,,,,,,,,,,,,,,,,4605.5760775,4612.088126500001,None, hinder,"['h', 'i', 'n', 'd', 'e', 'r', 'return']","[1.2347909999989497, 1.346800399998756, 1.5707392000003892, 1.7233789999991131, 1.8107247999978426, 1.962954799997533, 2.427540199998475]",,,,,,,,,,15,001,E,2023_Feb_08_1249,student_TT_local,2021.1.4,59.96904397918476,
,,,,,,,,,,,,,,,,,,,,typingRatingScale.png,"How would you rate your typing performance in the previous section?

Press a number on your keyboard according to the rating scale below to give your answer. Your first answer will be accepted.",,,,,,,,,,,,,,,,,,,,,,,,,,,,,,,,,,,,,,,,,,,,,0,0,0,0,,,,,,,,,,,,,,,,,,,,,,,,,,,,,,,,,,,,,,,,,,,,,,,,['5'],[4.031618199998775],,,,,,,,15,001,E,2023_Feb_08_1249,student_TT_local,2021.1.4,59.96904397918476,
,,,,,,,,,,,,,,,,,,,,imageryCheckScale.png,"In the previous section did you imagine yourself typing?

Press a number on your keyboard according to the rating scale below to give your answer. Your first answer will be accepted.",,,,,,,,,,,,,,,,,,,,,,,,,,,,,,,,,,,,,,,,,,,,,0,1,1,1,,,,,,,,,,,,,,,,,,,,,,,,,,,,,,,,,,,,,,,,,,,,,,,,['3'],[6.76725660000011],,,,,,,,15,001,E,2023_Feb_08_1249,student_TT_local,2021.1.4,59.96904397918476,
,None,None,None,None,None,None,None,None,None,None,plasma,jailer,19.5,20.5,video&audio/nettle_touch_edited.mp4,video&audio/Sentence5_touch_edited.mp4,nettle,convoy,None,,,,,,,,,,,,,,,,,,,,,,,,,,,,,,,,,,,,,,,,,,,,,,,,,,,,,,,,,,,0,0,0,16,,,,,,,,,,,,,,,None,"['b', 'u', 't', 't', 'e', 'r', 'return']","[1.1524300999990373, 1.4970974999996542, 1.8004978999997547, 1.9775812000007136, 2.088372599999275, 2.2004446999999345, 2.3285867999984475]",,,,,,,,,,,,,,,,,,,,,None,None, convoy,"['c', 'n', 'backspace', 'o', 'n', 'v', 'o', 'y', 'return']","[1.2296380000007048, 1.4617782000022999, 2.2535395000013523, 2.7420369000028586, 2.8693819000000076, 3.117773900001339, 3.4695000000028813, 3.7975648999999976, 4.005926800000452]",,,15,001,E,2023_Feb_08_1249,student_TT_local,2021.1.4,59.96904397918476,
,None,None,None,None,None,None,None,None,None,None,debtor,output,19.5,20.5,video&audio/uphold_touch_edited.mp4,video&audio/Sentence1_touch_edited.mp4,uphold,pursue,None,,,,,,,,,,,,,,,,,,,,,,,,,,,,,,,,,,,,,,,,,,,,,,,,,,,,,,,,,,,0,1,1,18,,,,,,,,,,,,,,,None,,,,,,,,,,,,,,,,,,,,,,,,None, pursue,"['p', 'u', 'r', 's', 'u', 'e', 'return']","[1.2632998000008229, 1.3588971999997739, 1.6633025999981328, 1.7825210000009974, 2.190565000000788, 2.358922299998085, 2.806551400000899]",,,15,001,E,2023_Feb_08_1249,student_TT_local,2021.1.4,59.96904397918476,
,None,None,None,None,None,None,None,None,None,None,virile,joiner,6.5,7.5,video&audio/apathy_TT_3X.mp4,video&audio/sentence6_TT_3X.mp4,apathy,revolt,None,,,,,,,,,,,,,,,,,,,,,,,,,,,,,,,,,,,,,,,,,,,,,,,,,,,,,,,,,,,0,2,2,5,,,,,,,,,,,,,,,None,,,,,,,,,,,,,,,,,,,,,,,,None, revolt,"['r', 'e', 'v', 'o', 'l', 't', 'return']","[1.2301010000010137, 1.3349386999980197, 1.6704926999991585, 1.8941468999983044, 2.0783769999979995, 2.2301516000006814, 2.3990058999988833]",,,15,001,E,2023_Feb_08_1249,student_TT_local,2021.1.4,59.96904397918476,
,"While you watch the video, imagine yourself typing the word on the screen, like how you did in the imagery practice. While you watch the video and imagine this, rest your hands on your keyboard but DO NOT type until AFTER you see the typing prompt.

Press 'enter/return' to go to the next page.","While watching the video, imagine yourself typing the word on the screen, like how you did in the imagery practice. While you watch the video and imagine this, rest your hands on your keyboard but DO NOT type until AFTER you see the typing prompt.

Press 'enter/return' to go to the next page.",video&audio/Example_AOMI_imagine.png,1.6,1,butter,6.5,7.5,video&audio/butter_TT_3X.mp4,video&audio/amount_TT_3X.mp4,ascend,metric,6.5,7.5,video&audio/eatery_TT_3X.mp4,video&audio/sentence2_TT_3X.mp4,eatery,plight,2 = AOMIgen,,,,,,,,,,,,,,,,,,,,,,,,,,,,,,,,,,,,,,,,,,,,,,,,,,,,,,,,,,,0,3,3,1,,,,,,,,,,,,,,,None,,,,,,,,,,,,,,,,,,,,,,,,None, plight,"['p', 'l', 'i', 'g', 'h', 't', 'return']","[1.0921268999991298, 1.1630952999985311, 1.5711168999987422, 1.8591465999998036, 1.9949667000000773, 2.179350299997168, 2.707282600000326]",,,15,001,E,2023_Feb_08_1249,student_TT_local,2021.1.4,59.96904397918476,
,None,None,None,None,None,None,None,None,None,None,hippie,hearth,6.5,7.5,video&audio/herbal_TT_3X.mp4,video&audio/sentence3_TT_3X.mp4,herbal,deduct,None,,,,,,,,,,,,,,,,,,,,,,,,,,,,,,,,,,,,,,,,,,,,,,,,,,,,,,,,,,,0,4,4,14,,,,,,,,,,,,,,,None,,,,,,,,,,,,,,,,,,,,,,,,None, deduct,"['d', 'e', 'd', 'u', 'c', 't', 'return']","[0.9692549999999756, 1.089036400000623, 1.368827100002818, 1.6166685999996844, 1.6973203000015928, 2.0252665000007255, 2.3767770000013115]",,,15,001,E,2023_Feb_08_1249,student_TT_local,2021.1.4,59.96904397918476,
,None,None,None,None,None,None,None,None,None,None,ritual,clergy,19.5,20.5,video&audio/portal_touch_edited.mp4,video&audio/Sentence6_touch_edited.mp4,portal,murmur,None,,,,,,,,,,,,,,,,,,,,,,,,,,,,,,,,,,,,,,,,,,,,,,,,,,,,,,,,,,,0,5,5,17,,,,,,,,,,,,,,,None,,,,,,,,,,,,,,,,,,,,,,,,None, murmur,"['m', 'u', 'r', 'm', 'u', 'r', 'return']","[1.0057101000020339, 1.4296056000021053, 1.6211962999987009, 1.869918799999141, 2.141332600000169, 2.2946136999999, 2.910545800001273]",,,15,001,E,2023_Feb_08_1249,student_TT_local,2021.1.4,59.96904397918476,
,None,None,None,None,None,None,None,None,None,None,cervix,cobble,19.5,20.5,video&audio/export_touch_edited.mp4,video&audio/Sentence2_touch_edited.mp4,export,savant,None,,,,,,,,,,,,,,,,,,,,,,,,,,,,,,,,,,,,,,,,,,,,,,,,,,,,,,,,,,,0,6,6,19,,,,,,,,,,,,,,,None,,,,,,,,,,,,,,,,,,,,,,,,None, savant,"['s', 'a', 'v', 'a', 'n', 't', 'return']","[0.8052601000017603, 0.9247144000000844, 1.2930426000020816, 1.3964902000006987, 1.6529365000023972, 1.8297763000009581, 2.0447075000010955]",,,15,001,E,2023_Feb_08_1249,student_TT_local,2021.1.4,59.96904397918476,
,None,None,None,None,None,None,None,None,None,None,confer,innate,6.5,7.5,video&audio/tamper_TT_3X.mp4,video&audio/sentence1_TT_3X.mp4,tamper,sonnet,None,,,,,,,,,,,,,,,,,,,,,,,,,,,,,,,,,,,,,,,,,,,,,,,,,,,,,,,,,,,0,7,7,12,,,,,,,,,,,,,,,None,,,,,,,,,,,,,,,,,,,,,,,,None, sonnet,"['s', 'o', 'n', 'n', 'e', 't', 'return']","[0.8317738999976427, 1.0639754999974684, 1.41569989999698, 1.5117336000002979, 1.7279853000000003, 1.9040677999983018, 2.3678819999986445]",,,15,001,E,2023_Feb_08_1249,student_TT_local,2021.1.4,59.96904397918476,
,None,None,None,None,None,None,None,None,None,None,solemn,befall,6.5,7.5,video&audio/ration_TT_3X.mp4,video&audio/sentence3_TT_3X.mp4,ration,parole,None,,,,,,,,,,,,,,,,,,,,,,,,,,,,,,,,,,,,,,,,,,,,,,,,,,,,,,,,,,,0,8,8,8,,,,,,,,,,,,,,,None,,,,,,,,,,,,,,,,,,,,,,,,None, parole,"['p', 'a', 'r', 'o', 'l', 'e', 'return']","[1.1344725000017206, 1.2381958000005397, 1.3812918000003265, 1.5653401999989, 1.7494412000014563, 1.8459803000005195, 2.0695258999985526]",,,15,001,E,2023_Feb_08_1249,student_TT_local,2021.1.4,59.96904397918476,
,None,None,None,None,None,None,None,None,None,None,covert,patent,6.5,7.5,video&audio/defame_TT_3X.mp4,video&audio/sentence6_TT_3X.mp4,defame,quarry,None,,,,,,,,,,,,,,,,,,,,,,,,,,,,,,,,,,,,,,,,,,,,,,,,,,,,,,,,,,,0,9,9,11,,,,,,,,,,,,,,,None,,,,,,,,,,,,,,,,,,,,,,,,None, quarry,"['q', 'u', 'a', 'r', 'r', 'y', 'return']","[0.8774761999993643, 1.0612578000000212, 1.2220460999997158, 1.501647299999604, 1.6537778999991133, 1.9572078000019246, 2.2692121000000043]",,,15,001,E,2023_Feb_08_1249,student_TT_local,2021.1.4,59.96904397918476,
,None,None,None,None,None,None,None,None,None,None,pulpit,oblige,6.5,7.5,video&audio/mystic_TT_3X.mp4,video&audio/sentence4_TT_3X.mp4,mystic,infirm,None,,,,,,,,,,,,,,,,,,,,,,,,,,,,,,,,,,,,,,,,,,,,,,,,,,,,,,,,,,,0,10,10,3,,,,,,,,,,,,,,,None,,,,,,,,,,,,,,,,,,,,,,,,None, infirm,"['i', 'n', 'f', 'i', 'r', 'm', 'return']","[1.0367421999981161, 1.148709000000963, 1.4846905000013066, 1.7807952000002842, 2.229172799998196, 2.3962427000005846, 2.8367438999994192]",,,15,001,E,2023_Feb_08_1249,student_TT_local,2021.1.4,59.96904397918476,
,None,None,None,None,None,None,None,None,None,None,falter,tandem,19.5,20.5,video&audio/origin_touch_edited.mp4,video&audio/Sentence4_touch_edited.mp4,origin,coerce,None,,,,,,,,,,,,,,,,,,,,,,,,,,,,,,,,,,,,,,,,,,,,,,,,,,,,,,,,,,,0,11,11,15,,,,,,,,,,,,,,,None,,,,,,,,,,,,,,,,,,,,,,,,None, coerce,"['c', 'o', 'e', 'r', 'c', 'e', 'return']","[1.0111981999980344, 1.162787400000525, 1.4429079000001366, 1.58683199999723, 1.8824980999997933, 1.9869359000003897, 2.3146273999991536]",,,15,001,E,2023_Feb_08_1249,student_TT_local,2021.1.4,59.96904397918476,
,None,None,None,None,None,None,None,None,None,None,cortex,induce,19.5,20.5,video&audio/mussel_touch_edited.mp4,video&audio/Sentence4_touch_edited.mp4,mussel,satire,None,,,,,,,,,,,,,,,,,,,,,,,,,,,,,,,,,,,,,,,,,,,,,,,,,,,,,,,,,,,0,12,12,21,,,,,,,,,,,,,,,None,,,,,,,,,,,,,,,,,,,,,,,,None, satire,"['s', 'a', 't', 'i', 'r', 'e', 'return']","[1.0987322000000859, 1.1948904000018956, 1.4986639000017021, 1.6985819000001356, 1.8106987000028312, 1.8987197000024025, 2.0990988000012294]",,,15,001,E,2023_Feb_08_1249,student_TT_local,2021.1.4,59.96904397918476,
,None,None,None,None,None,None,None,None,None,None,belfry,girdle,19.5,20.5,video&audio/linear_touch_edited.mp4,video&audio/Sentence6_touch_edited.mp4,linear,impose,None,,,,,,,,,,,,,,,,,,,,,,,,,,,,,,,,,,,,,,,,,,,,,,,,,,,,,,,,,,,0,13,13,23,,,,,,,,,,,,,,,None,,,,,,,,,,,,,,,,,,,,,,,,None, impose,"['i', 'm', 'p', 'o', 's', 'e', 'return']","[1.2207397999991372, 1.572962300000654, 1.804788000001281, 1.9802541000026395, 2.1085113000008278, 2.2205472999994527, 2.413378200002626]",,,15,001,E,2023_Feb_08_1249,student_TT_local,2021.1.4,59.96904397918476,
,None,None,None,None,None,None,None,None,None,None,tariff,delude,6.5,7.5,video&audio/galley_TT_3X.mp4,video&audio/sentence2_TT_3X.mp4,galley,strife,None,,,,,,,,,,,,,,,,,,,,,,,,,,,,,,,,,,,,,,,,,,,,,,,,,,,,,,,,,,,0,14,14,7,,,,,,,,,,,,,,,None,,,,,,,,,,,,,,,,,,,,,,,,None, strife,"['s', 't', 'r', 'i', 'f', 'e', 'return']","[0.792117099997995, 1.1363282999991497, 1.4162793999967107, 1.6248180999973556, 1.768306099998881, 1.8484537999975146, 2.0403563999971084]",,,15,001,E,2023_Feb_08_1249,student_TT_local,2021.1.4,59.96904397918476,
,None,None,None,None,None,None,None,None,None,None,kipper,meddle,19.5,20.5,video&audio/divert_touch_edited.mp4,video&audio/Sentence2_touch_edited.mp4,divert,upkeep,None,,,,,,,,,,,,,,,,,,,,,,,,,,,,,,,,,,,,,,,,,,,,,,,,,,,,,,,,,,,0,15,15,25,,,,,,,,,,,,,,,None,,,,,,,,,,,,,,,,,,,,,,,,None, upkeep,"['u', 'p', 'k', 'e', 'e', 'p', 'return']","[1.099902399997518, 1.1964167000005546, 1.4678141999975196, 1.7558771999974851, 1.924705499997799, 2.0681614999994054, 2.612464699999691]",,,15,001,E,2023_Feb_08_1249,student_TT_local,2021.1.4,59.96904397918476,
,None,None,None,None,None,None,None,None,None,None,piston,caviar,19.5,20.5,video&audio/shrill_touch_edited.mp4,video&audio/Sentence3_touch_edited.mp4,shrill,brazen,None,,,,,,,,,,,,,,,,,,,,,,,,,,,,,,,,,,,,,,,,,,,,,,,,,,,,,,,,,,,0,16,16,20,,,,,,,,,,,,,,,None,,,,,,,,,,,,,,,,,,,,,,,,None, brazen,"['b', 'r', 'a', 'z', 'e', 'n', 'return']","[1.169890099998156, 1.2818375999995624, 1.3698339999973541, 1.8022100999987742, 2.146506400000362, 2.3060058999981266, 2.914569799999299]",,,15,001,E,2023_Feb_08_1249,student_TT_local,2021.1.4,59.96904397918476,
,None,None,None,None,None,None,None,None,None,None,malady,shrewd,6.5,7.5,video&audio/revoke_TT_3X.mp4,video&audio/sentence1_TT_3X.mp4,revoke,mirage,None,,,,,,,,,,,,,,,,,,,,,,,,,,,,,,,,,,,,,,,,,,,,,,,,,,,,,,,,,,,0,17,17,6,,,,,,,,,,,,,,,None,,,,,,,,,,,,,,,,,,,,,,,,None, mirage,"['m', 'i', 'r', 'a', 'g', 'e', 'return']","[1.0102650999979232, 1.170618000000104, 1.370222300000023, 1.450430900000356, 1.6591915999997582, 1.7302309000006062, 2.0582485999984783]",,,15,001,E,2023_Feb_08_1249,student_TT_local,2021.1.4,59.96904397918476,
,None,None,None,None,None,None,None,None,None,None,obsess,zephyr,6.5,7.5,video&audio/fusion_TT_3X.mp4,video&audio/sentence5_TT_3X.mp4,fusion,critic,None,,,,,,,,,,,,,,,,,,,,,,,,,,,,,,,,,,,,,,,,,,,,,,,,,,,,,,,,,,,0,18,18,10,,,,,,,,,,,,,,,None,,,,,,,,,,,,,,,,,,,,,,,,None, critic,"['c', 'i', 'r', 'backspace', 'backspace', 'r', 'i', 't', 'i', 'c', 'return']","[0.937735799998336, 1.1136826999972982, 1.626657000000705, 2.2264336999978696, 2.418174899998121, 2.745947999999771, 2.8897541999976966, 3.0578160000004573, 3.1701896999984456, 3.377628399997775, 3.529560799997853]",,,15,001,E,2023_Feb_08_1249,student_TT_local,2021.1.4,59.96904397918476,
,None,None,None,None,None,None,None,None,None,None,subdue,feudal,19.5,20.5,video&audio/matron_touch_edited.mp4,video&audio/Sentence3_touch_edited.mp4,matron,legion,None,,,,,,,,,,,,,,,,,,,,,,,,,,,,,,,,,,,,,,,,,,,,,,,,,,,,,,,,,,,0,19,19,26,,,,,,,,,,,,,,,None,,,,,,,,,,,,,,,,,,,,,,,,None, legion,"['l', 'e', 'g', 'i', 'o', 'n', 'return']","[1.0807925000008254, 1.2325616999987687, 1.3919161000012537, 1.6719488000017009, 1.7201190999985556, 2.5439344000005804, 3.335908600001858]",,,15,001,E,2023_Feb_08_1249,student_TT_local,2021.1.4,59.96904397918476,
,None,None,None,None,None,None,None,None,None,None,picket,parish,19.5,20.5,video&audio/gullet_touch_edited.mp4,video&audio/Sentence5_touch_edited.mp4,gullet,manure,None,,,,,,,,,,,,,,,,,,,,,,,,,,,,,,,,,,,,,,,,,,,,,,,,,,,,,,,,,,,0,20,20,28,,,,,,,,,,,,,,,None,,,,,,,,,,,,,,,,,,,,,,,,None, manure,"['m', 'a', 'n', 'u', 'r', 'e', 'return']","[0.6989064999979746, 0.7950314000008802, 1.0359491999988677, 1.3631653999982518, 1.5390512999983912, 1.6191423999989638, 2.099328799999057]",,,15,001,E,2023_Feb_08_1249,student_TT_local,2021.1.4,59.96904397918476,
,None,None,None,None,None,None,None,None,None,None,subtle,fungal,19.5,20.5,video&audio/mucous_touch_edited.mp4,video&audio/Sentence5_touch_edited.mp4,mucous,musket,None,,,,,,,,,,,,,,,,,,,,,,,,,,,,,,,,,,,,,,,,,,,,,,,,,,,,,,,,,,,0,21,21,22,,,,,,,,,,,,,,,None,,,,,,,,,,,,,,,,,,,,,,,,None, musket,"['m', 'u', 's', 'k', 'e', 't', 'return']","[0.9648240000024089, 1.204137600001559, 1.332364800000505, 1.4684706000007282, 1.6357618000001821, 1.7802425000008952, 1.9483048000001872]",,,15,001,E,2023_Feb_08_1249,student_TT_local,2021.1.4,59.96904397918476,
,None,None,None,None,None,None,None,None,None,None,forage,campus,19.5,20.5,video&audio/allure_touch_edited.mp4,video&audio/Sentence6_touch_edited.mp4,allure,binder,None,,,,,,,,,,,,,,,,,,,,,,,,,,,,,,,,,,,,,,,,,,,,,,,,,,,,,,,,,,,0,22,22,29,,,,,,,,,,,,,,,None,,,,,,,,,,,,,,,,,,,,,,,,None, binder,"['b', 'i', 'n', 'd', 'e', 'r', 'return']","[0.984567400002561, 1.1043878000018594, 1.312439400000585, 1.54462760000024, 1.6243011000005936, 1.7924610000009125, 2.1842351000013878]",,,15,001,E,2023_Feb_08_1249,student_TT_local,2021.1.4,59.96904397918476,
,"Remember to type as QUICKLY and ACCURATELY as possible after the 'get ready' prompt.

Ask the experimenter any questions now. Please put on the headphones.

You will get one practice trial. Press 'enter/return' when you are ready to start the practice.","Remember to type as QUICKLY and ACCURATELY as you can after the 'get ready' prompt.

Ask the experimenter any questions now. Please put on the headphones.

You will get one practice trial. Press 'enter/return' when you are ready to start the practice.",video&audio/Example_AOMI_total.png,1.8,0.7,None,None,None,None,None,frugal,oppose,6.5,7.5,video&audio/ghetto_TT_3X.mp4,video&audio/sentence3_TT_3X.mp4,ghetto,jargon,None,,,,,,,,,,,,,,,,,,,,,,,,,,,,,,,,,,,,,,,,,,,,,,,,,,,,,,,,,,,0,23,23,2,,,,,,,,,,,,,,,None,,,,,,,,,,,,,,,,,,,,,,,,None, jargon,"['j', 'a', 'r', 'g', 'o', 'n', 'return']","[1.0147562000020116, 1.1109242000020458, 1.3267727000020386, 1.582706799999869, 1.6947681999990891, 1.7991861000009521, 2.207634099999268]",,,15,001,E,2023_Feb_08_1249,student_TT_local,2021.1.4,59.96904397918476,
,None,None,None,None,None,None,None,None,None,None,parcel,primal,6.5,7.5,video&audio/entail_TT_3X.mp4,video&audio/sentence5_TT_3X.mp4,entail,novice,None,,,,,,,,,,,,,,,,,,,,,,,,,,,,,,,,,,,,,,,,,,,,,,,,,,,,,,,,,,,0,24,24,4,,,,,,,,,,,,,,,None,,,,,,,,,,,,,,,,,,,,,,,,None, novice,"['n', 'o', 'c', 'backspace', 'v', 'i', 'c', 'e', 'return']","[1.0237535999985994, 1.1128128999989713, 1.368257199999789, 1.9042971999988367, 2.5681511999973736, 2.7122694999998203, 2.9759362999975565, 3.0641782999991847, 3.5201127999971504]",,,15,001,E,2023_Feb_08_1249,student_TT_local,2021.1.4,59.96904397918476,
,None,None,None,None,None,None,None,None,None,None,neural,septic,6.5,7.5,video&audio/innate_TT_3X.mp4,video&audio/sentence2_TT_3X.mp4,ordain,potent,None,,,,,,,,,,,,,,,,,,,,,,,,,,,,,,,,,,,,,,,,,,,,,,,,,,,,,,,,,,,0,25,25,13,,,,,,,,,,,,,,,None,,,,,,,,,,,,,,,,,,,,,,,,None, potent,"['p', 'o', 't', 'e', 'n', 't', 'return']","[0.863294800001313, 0.9351577000015823, 1.1990126999990025, 1.2952652999993006, 1.4953768000013952, 1.647034800000256, 1.9354701000011119]",,,15,001,E,2023_Feb_08_1249,student_TT_local,2021.1.4,59.96904397918476,
,None,None,None,None,None,None,None,None,None,None,botany,trench,19.5,20.5,video&audio/ethnic_touch_edited.mp4,video&audio/Sentence4_touch_edited.mp4,ethnic,goblet,None,,,,,,,,,,,,,,,,,,,,,,,,,,,,,,,,,,,,,,,,,,,,,,,,,,,,,,,,,,,0,26,26,27,,,,,,,,,,,,,,,None,,,,,,,,,,,,,,,,,,,,,,,,None, goblet,"['g', 'o', 'b', 'l', 'e', 't', 'return']","[1.0353701000021829, 1.1470083000021987, 1.2988538999998127, 1.3787940000001981, 1.5793412000020908, 1.7079647000027762, 2.1308400000016263]",,,15,001,E,2023_Feb_08_1249,student_TT_local,2021.1.4,59.96904397918476,
,None,None,None,None,None,None,None,None,None,None,jackal,hamlet,6.5,7.5,video&audio/shroud_TT_3X.mp4,video&audio/sentence4_TT_3X.mp4,shroud,sherry,None,,,,,,,,,,,,,,,,,,,,,,,,,,,,,,,,,,,,,,,,,,,,,,,,,,,,,,,,,,,0,27,27,9,,,,,,,,,,,,,,,None,,,,,,,,,,,,,,,,,,,,,,,,None, sherry,"['s', 'h', 'e', 'r', 'r', 'y', 'return']","[0.7903592000002391, 0.9742476999999781, 1.1825179000006756, 1.4698922999996284, 1.6144593000026362, 1.9430732000000717, 2.2624795000010636]",,,15,001,E,2023_Feb_08_1249,student_TT_local,2021.1.4,59.96904397918476,
,"This is Section 2.

In this section, your task will be the same as before - that is, to type the word you see on the screen after the typing prompt. However, rather than just seeing the word before typing, you will also see a video of someone typing the same word you will need to type at various speeds. 

Press 'enter/return' to go to the next page.","This is Section 4. 

In this section, your task will be the same as before - that is, to type the word you see on the screen after the typing prompt. You will see a video again, like in Section 2, only this time, the video will show someone typing different words to what you must type at various speeds. 

Press 'enter/return' to go to the next page.",video&audio/Example_AOMI_layout.png,1.6,0.6,afford,19.5,20.5,video&audio/afford_touch_edited.mp4,video&audio/amount_touch_edited.mp4,matrix,hinder,6.5,7.5,video&audio/breach_TT_3X.mp4,video&audio/sentence1_TT_3X.mp4,breach,vanity,1 = AOMIspec,,,,,,,,,,,,,,,,,,,,,,,,,,,,,,,,,,,,,,,,,,,,,,,,,,,,,,,,,,,0,28,28,0,,,,,,,,,,,,,,,None,,,,,,,,,,,,,,,,,,,,,,,,None, vanity,"['v', 'a', 'n', 'i', 't', 'y', 'return']","[0.9617613999980676, 1.0501537999989523, 1.2418727000003855, 1.4259416999993846, 1.7143283000004885, 1.8260143999978027, 2.3618697999991127]",,,15,001,E,2023_Feb_08_1249,student_TT_local,2021.1.4,59.96904397918476,
,None,None,None,None,None,None,None,None,None,None,devise,mangle,19.5,20.5,video&audio/warble_touch_edited.mp4,video&audio/Sentence1_touch_edited.mp4,warble,fodder,None,,,,,,,,,,,,,,,,,,,,,,,,,,,,,,,,,,,,,,,,,,,,,,,,,,,,,,,,,,,0,29,29,24,,,,,,,,,,,,,,,None,,,,,,,,,,,,,,,,,,,,,,,,None, fodder,"['f', 'o', 'd', 'd', 'e', 'r', 'return']","[0.9853969999967376, 1.1452824999978475, 1.3936252999992575, 1.537494299998798, 1.7622433999968052, 1.8579930999985663, 2.4015042999999423]",,,15,001,E,2023_Feb_08_1249,student_TT_local,2021.1.4,59.96904397918476,
,,,,,,,,,,,,,,,,,,,,typingRatingScale.png,"How would you rate your typing performance in the previous section?

Press a number on your keyboard according to the rating scale below to give your answer. Your first answer will be accepted.",,,,,,,,,,,,,,,,,,,,,,,,,,,,,,,,,,,,,,,,,,,,,,,,,,,,,,,,,,,,,0,0,0,0,,,,,,,,,,,,,,,,,,,,,,,,,,,,,,,,,,,,,,,['4'],[3.0335680000025604],15,001,E,2023_Feb_08_1249,student_TT_local,2021.1.4,59.96904397918476,
,,,,,,,,,,,,,,,,,,,,visualImageryScale.png,"While imagining yourself typing, how clear was your visual image?

Press a number on your keyboard according to the rating scale below to give your answer. Your first answer will be accepted.",,,,,,,,,,,,,,,,,,,,,,,,,,,,,,,,,,,,,,,,,,,,,,,,,,,,,,,,,,,,,0,1,1,1,,,,,,,,,,,,,,,,,,,,,,,,,,,,,,,,,,,,,,,['3'],[4.390054299998155],15,001,E,2023_Feb_08_1249,student_TT_local,2021.1.4,59.96904397918476,
,,,,,,,,,,,,,,,,,,,,kinestheticImageryScale.png,"While imagining yourself typing, how intense were the sensations associated with the imagined movement?

Press a number on your keyboard according to the rating scale below to give your answer. Your first answer will be accepted.",,,,,,,,,,,,,,,,,,,,,,,,,,,,,,,,,,,,,,,,,,,,,,,,,,,,,,,,,,,,,0,2,2,2,,,,,,,,,,,,,,,,,,,,,,,,,,,,,,,,,,,,,,,['1'],[6.797736800002895],15,001,E,2023_Feb_08_1249,student_TT_local,2021.1.4,59.96904397918476,
