pracWords,instr_1,instr_2,AOMI_Ima,AOMI_w,AOMI_h,practiceWords,prac_time,prac_bkgd_time,pracVid_1,pracVid_2,baseline_words,control_words,cont_time,cont_bgkd_time,first_vids,second_vids,AOMIfirst_words,AOMIsecond_words,Order,ratingScale,rateInstr,instructLoop.thisRepN,instructLoop.thisTrialN,instructLoop.thisN,instructLoop.thisIndex,practice_control.thisRepN,practice_control.thisTrialN,practice_control.thisN,practice_control.thisIndex,trials_1.thisRepN,trials_1.thisTrialN,trials_1.thisN,trials_1.thisIndex,baseRateLoop.thisRepN,baseRateLoop.thisTrialN,baseRateLoop.thisN,baseRateLoop.thisIndex,AOMIinstrLoop1.thisRepN,AOMIinstrLoop1.thisTrialN,AOMIinstrLoop1.thisN,AOMIinstrLoop1.thisIndex,AOMIpracLoop.thisRepN,AOMIpracLoop.thisTrialN,AOMIpracLoop.thisN,AOMIpracLoop.thisIndex,trials_2.thisRepN,trials_2.thisTrialN,trials_2.thisN,trials_2.thisIndex,AOMI1rateLoop.thisRepN,AOMI1rateLoop.thisTrialN,AOMI1rateLoop.thisN,AOMI1rateLoop.thisIndex,contInstrLoop.thisRepN,contInstrLoop.thisTrialN,contInstrLoop.thisN,contInstrLoop.thisIndex,contPracLoop.thisRepN,contPracLoop.thisTrialN,contPracLoop.thisN,contPracLoop.thisIndex,trials_3.thisRepN,trials_3.thisTrialN,trials_3.thisN,trials_3.thisIndex,contRateLoop.thisRepN,contRateLoop.thisTrialN,contRateLoop.thisN,contRateLoop.thisIndex,AOMIinstrLoop2.thisRepN,AOMIinstrLoop2.thisTrialN,AOMIinstrLoop2.thisN,AOMIinstrLoop2.thisIndex,AOMIpracLoop2.thisRepN,AOMIpracLoop2.thisTrialN,AOMIpracLoop2.thisN,AOMIpracLoop2.thisIndex,trials_4.thisRepN,trials_4.thisTrialN,trials_4.thisN,trials_4.thisIndex,AOMI2rateLoop.thisRepN,AOMI2rateLoop.thisTrialN,AOMI2rateLoop.thisN,AOMI2rateLoop.thisIndex,pracBkgdKeys.keys,pracBkgdKeys.rt,pracKeys.keys,pracKeys.rt,baseBkgdKeys.keys,base_typedWord,baseKeys.keys,baseKeys.rt,baseBkgdKeys.rt,baseRateTypeKey.keys,baseRateTypeKey.rt,AOMI1_BkgdKeys.keys,AOMI_promptBkgdKeys.keys,AOMI1pracKeys.keys,AOMI1pracKeys.rt,AOMI1bkdgKeys.keys,AOMI1_typedWord,AOMI1keys.keys,AOMI1keys.rt,AOMI1rateTypeKey.keys,AOMI1rateTypeKey.rt,polygon_prac.started,polygon_prac.stopped,contBkgdKeys_prac.keys,contPrac_typedWord,contKeys_prac.keys,contKeys_prac.rt,polygon.started,polygon.stopped,contBkgdKeys.keys,contBkgdKeys.rt,cont_typedWord,contKeys.keys,contKeys.rt,contTypeKey.keys,contTypeKey.rt,bkgdkeys_prac2.keys,bkgdKeys4.keys,AOMI2_typedWord,keyboardCom4.keys,keyboardCom4.rt,bkgdKeys4.rt,AOMI2typeKey.keys,AOMI2typeKey.rt,participant,session,group,date,expName,psychopyVersion,frameRate,
update,,,,,,,,,,,,,,,,,,,,,,,,,,0,0,0,2,,,,,,,,,,,,,,,,,,,,,,,,,,,,,,,,,,,,,,,,,,,,,,,,,,,,,,,,,"['u', 'p']","[1.4597569999750704, 1.9713729999493808]","['u', 'p', 'd', 'a', 't', 'e', 'return']","[0.7428194999229163, 0.9589480999857187, 1.071294599911198, 1.1510163999628276, 1.3748253998346627, 1.4471181998960674, 2.3028930998407304]",,,,,,,,,,,,,,,,,,,,,,,,,,,,,,,,,,,,,,,,,17,001,D,2023_Feb_22_1045,student_TT_local,2021.1.4,47.98911223669757,
height,,,,,,,,,,,,,,,,,,,,,,,,,,0,1,1,0,,,,,,,,,,,,,,,,,,,,,,,,,,,,,,,,,,,,,,,,,,,,,,,,,,,,,,,,,None,,"['h', 'e', 'i', 'g', 'h', 't', 'return']","[0.30134920007549226, 0.3892880999483168, 0.6213460001163185, 0.8052703998982906, 0.8613088000565767, 1.0052382999565452, 1.3573408001102507]",,,,,,,,,,,,,,,,,,,,,,,,,,,,,,,,,,,,,,,,,17,001,D,2023_Feb_22_1045,student_TT_local,2021.1.4,47.98911223669757,
replay,,,,,,,,,,,,,,,,,,,,,,,,,,0,2,2,1,,,,,,,,,,,,,,,,,,,,,,,,,,,,,,,,,,,,,,,,,,,,,,,,,,,,,,,,,['e'],[2.5031716998200864],"['r', 'e', 'p', 'l', 'a', 'y', 'return']","[0.3110323001164943, 0.3590158000588417, 0.5349644999951124, 0.7110713000874966, 0.7832635999657214, 1.0630789001006633, 1.3750924000050873]",,,,,,,,,,,,,,,,,,,,,,,,,,,,,,,,,,,,,,,,,17,001,D,2023_Feb_22_1045,student_TT_local,2021.1.4,47.98911223669757,
,None,None,None,None,None,None,None,None,None,None,murmur,cobble,6.5,7.5,video&audio/sentence2_TT_3X.mp4,video&audio/export_TT_3X.mp4,cervix,export,None,,,,,,,,,,,0,0,0,19,,,,,,,,,,,,,,,,,,,,,,,,,,,,,,,,,,,,,,,,,,,,,,,,,,,,,,,,,None, murmur,"['m', 'u', 'r', 'm', 'u', 'r', 'return']","[0.4354727000463754, 0.7313466998748481, 0.8514745999127626, 0.9952060000505298, 1.1956028998829424, 1.2913104998879135, 1.803044900065288]",,,,,,,,,,,,,,,,,,,,,,,,,,,,,,,,,,,,,17,001,D,2023_Feb_22_1045,student_TT_local,2021.1.4,47.98911223669757,
,None,None,None,None,None,None,None,None,None,None,novice,primal,19.5,20.5,video&audio/Sentence5_touch_edited.mp4,video&audio/entail_touch_edited.mp4,parcel,entail,None,,,,,,,,,,,0,1,1,4,,,,,,,,,,,,,,,,,,,,,,,,,,,,,,,,,,,,,,,,,,,,,,,,,,,,,,,,,['n'], novice,"['n', 'o', 'v', 'i', 'c', 'e', 'return']","[0.34977749991230667, 0.6297977999784052, 0.7580224999692291, 0.8942424000706524, 1.0457232999615371, 1.1660752000752836, 1.6781921999063343]",[2.3447390999644995],,,,,,,,,,,,,,,,,,,,,,,,,,,,,,,,,,,,17,001,D,2023_Feb_22_1045,student_TT_local,2021.1.4,47.98911223669757,
,None,None,None,None,None,None,None,None,None,None,fodder,trench,6.5,7.5,video&audio/sentence4_TT_3X.mp4,video&audio/ethnic_TT_3X.mp4,botany,ethnic,None,,,,,,,,,,,0,2,2,27,,,,,,,,,,,,,,,,,,,,,,,,,,,,,,,,,,,,,,,,,,,,,,,,,,,,,,,,,None, fodder,"['f', 'o', 'd', 'd', 'e', 'r', 'return']","[0.3568369001150131, 0.5092283999547362, 0.628852800000459, 0.7649091000203043, 0.8931307001039386, 0.9728484000079334, 1.1410387000069022]",,,,,,,,,,,,,,,,,,,,,,,,,,,,,,,,,,,,,17,001,D,2023_Feb_22_1045,student_TT_local,2021.1.4,47.98911223669757,
,None,None,None,None,None,None,None,None,None,None,mirage,shrewd,19.5,20.5,video&audio/Sentence1_touch_edited.mp4,video&audio/revoke_touch_edited.mp4,malady,revoke,None,,,,,,,,,,,0,3,3,6,,,,,,,,,,,,,,,,,,,,,,,,,,,,,,,,,,,,,,,,,,,,,,,,,,,,,,,,,None, mirage,"['m', 'i', 'r', 'a', 'g', 'e', 'return']","[0.2661199001595378, 0.5463443000335246, 0.6589717001188546, 0.6903095999732614, 0.9620710001327097, 1.0023623001761734, 1.1225195000879467]",,,,,,,,,,,,,,,,,,,,,,,,,,,,,,,,,,,,,17,001,D,2023_Feb_22_1045,student_TT_local,2021.1.4,47.98911223669757,
,None,None,None,None,None,None,None,None,None,None,infirm,oblige,19.5,20.5,video&audio/Sentence4_touch_edited.mp4,video&audio/mystic_touch_edited.mp4,pulpit,mystic,None,,,,,,,,,,,0,4,4,3,,,,,,,,,,,,,,,,,,,,,,,,,,,,,,,,,,,,,,,,,,,,,,,,,,,,,,,,,None, infirm,"['i', 'n', 'f', 'i', 'r', 'm', 'return']","[0.3895076001062989, 0.589862999971956, 0.7254042001441121, 0.8372398000210524, 0.9495213001500815, 1.0694727001246065, 1.245425899978727]",,,,,,,,,,,,,,,,,,,,,,,,,,,,,,,,,,,,,17,001,D,2023_Feb_22_1045,student_TT_local,2021.1.4,47.98911223669757,
,None,None,None,None,None,None,None,None,None,None,critic,binder,19.5,20.5,video&audio/Sentence1_touch_edited.mp4,video&audio/tamper_touch_edited.mp4,confer,tamper,None,,,,,,,,,,,0,5,5,12,,,,,,,,,,,,,,,,,,,,,,,,,,,,,,,,,,,,,,,,,,,,,,,,,,,,,,,,,['c'], critic,"['c', 'r', 'i', 't', 'i', 'c', 'return']","[0.37984189996495843, 0.6597934998571873, 0.8040866998489946, 0.9317818998824805, 1.0198808000423014, 1.2117502999026328, 1.3961214998271316]",[2.358866599854082],,,,,,,,,,,,,,,,,,,,,,,,,,,,,,,,,,,,17,001,D,2023_Feb_22_1045,student_TT_local,2021.1.4,47.98911223669757,
,None,None,None,None,None,None,None,None,None,None,brazen,fungal,6.5,7.5,video&audio/sentence5_TT_3X.mp4,video&audio/mucous_TT_3X.mp4,subtle,mucous,None,,,,,,,,,,,0,6,6,22,,,,,,,,,,,,,,,,,,,,,,,,,,,,,,,,,,,,,,,,,,,,,,,,,,,,,,,,,None, brazen,"['b', 'r', 'a', 'z', 'e', 'n', 'bracketright', 'backspace', 'return']","[0.2738087000325322, 0.3857398999389261, 0.46598699991591275, 0.6897664999123663, 0.9058052999898791, 1.0020595998503268, 1.2738139999564737, 1.817873999942094, 2.0421463998500258]",,,,,,,,,,,,,,,,,,,,,,,,,,,,,,,,,,,,,17,001,D,2023_Feb_22_1045,student_TT_local,2021.1.4,47.98911223669757,
,None,None,None,None,None,None,None,None,None,None,parole,hamlet,19.5,20.5,video&audio/Sentence4_touch_edited.mp4,video&audio/shroud_touch_edited.mp4,jackal,shroud,None,,,,,,,,,,,0,7,7,9,,,,,,,,,,,,,,,,,,,,,,,,,,,,,,,,,,,,,,,,,,,,,,,,,,,,,,,,,None, parole,"['p', 'a', 'r', 'o', 'l', 'e', 'return']","[0.43548849993385375, 0.5478503000922501, 0.6035734000615776, 0.7081204000860453, 0.8756967999506742, 0.9553908000234514, 1.0997834000736475]",,,,,,,,,,,,,,,,,,,,,,,,,,,,,,,,,,,,,17,001,D,2023_Feb_22_1045,student_TT_local,2021.1.4,47.98911223669757,
,None,None,None,None,None,None,None,None,None,None,quarry,septic,19.5,20.5,video&audio/Sentence2_touch_edited.mp4,video&audio/innate_touch_edited.mp4,neural,innate,None,,,,,,,,,,,0,8,8,13,,,,,,,,,,,,,,,,,,,,,,,,,,,,,,,,,,,,,,,,,,,,,,,,,,,,,,,,,None, quarry,"['q', 'u', 'a', 'r', 'r', 'y', 'return']","[0.30799930007196963, 0.41198479989543557, 0.5721624998841435, 0.6600579000078142, 0.8040998999495059, 1.1240797999780625, 1.4839896999765188]",,,,,,,,,,,,,,,,,,,,,,,,,,,,,,,,,,,,,17,001,D,2023_Feb_22_1045,student_TT_local,2021.1.4,47.98911223669757,
,None,None,None,None,None,None,None,None,None,None,coerce,clergy,6.5,7.5,video&audio/sentence6_TT_3X.mp4,video&audio/portal_TT_3X.mp4,ritual,portal,None,,,,,,,,,,,0,9,9,17,,,,,,,,,,,,,,,,,,,,,,,,,,,,,,,,,,,,,,,,,,,,,,,,,,,,,,,,,None, coerce,"['c', 'o', 'e', 'r', 'c', 'e', 'return']","[0.27107020001858473, 0.3671639000531286, 0.5193904000334442, 0.5831614001654088, 0.8389550000429153, 0.9268372000660747, 1.0710062000434846]",,,,,,,,,,,,,,,,,,,,,,,,,,,,,,,,,,,,,17,001,D,2023_Feb_22_1045,student_TT_local,2021.1.4,47.98911223669757,
,None,None,None,None,None,None,None,None,None,None,pursue,caviar,6.5,7.5,video&audio/sentence3_TT_3X.mp4,video&audio/shrill_TT_3X.mp4,piston,shrill,None,,,,,,,,,,,0,10,10,20,,,,,,,,,,,,,,,,,,,,,,,,,,,,,,,,,,,,,,,,,,,,,,,,,,,,,,,,,None, pursue,"['p', 'u', 'r', 's', 'u', 'e', 'return']","[0.35559680010192096, 0.6115663999225944, 0.7235133999492973, 0.9555828000884503, 1.1314918000716716, 1.2675634999759495, 1.4035680999513716]",,,,,,,,,,,,,,,,,,,,,,,,,,,,,,,,,,,,,17,001,D,2023_Feb_22_1045,student_TT_local,2021.1.4,47.98911223669757,
,None,None,None,None,None,None,None,None,None,None,convoy,output,6.5,7.5,video&audio/sentence1_TT_3X.mp4,video&audio/uphold_TT_3X.mp4,debtor,uphold,None,,,,,,,,,,,0,11,11,18,,,,,,,,,,,,,,,,,,,,,,,,,,,,,,,,,,,,,,,,,,,,,,,,,,,,,,,,,None, convoy,"['c', 'o', 'n', 'v', 'o', 'y', 'return']","[0.26622210000641644, 0.3621139999013394, 0.6268390999175608, 0.8500419999472797, 0.9781124000437558, 1.2422151998616755, 1.3940021998714656]",,,,,,,,,,,,,,,,,,,,,,,,,,,,,,,,,,,,,17,001,D,2023_Feb_22_1045,student_TT_local,2021.1.4,47.98911223669757,
,None,None,None,None,None,None,None,None,None,None,upkeep,parish,6.5,7.5,video&audio/sentence5_TT_3X.mp4,video&audio/gullet_TT_3X.mp4,picket,gullet,None,,,,,,,,,,,0,12,12,28,,,,,,,,,,,,,,,,,,,,,,,,,,,,,,,,,,,,,,,,,,,,,,,,,,,,,,,,,['u'], upkeep,"['u', 'p', 'k', 'e', 'e', 'return']","[0.286738800117746, 0.5504405000247061, 0.910660499939695, 1.0546351000666618, 1.198540800018236, 1.5265824000816792]",[2.3309560001362115],,,,,,,,,,,,,,,,,,,,,,,,,,,,,,,,,,,,17,001,D,2023_Feb_22_1045,student_TT_local,2021.1.4,47.98911223669757,
,None,None,None,None,None,None,None,None,None,None,strife,delude,19.5,20.5,video&audio/Sentence2_touch_edited.mp4,video&audio/galley_touch_edited.mp4,tariff,galley,None,,,,,,,,,,,0,13,13,7,,,,,,,,,,,,,,,,,,,,,,,,,,,,,,,,,,,,,,,,,,,,,,,,,,,,,,,,,None, strife,"['s', 't', 'r', 'i', 'f', 'e', 'return']","[0.32071750005707145, 0.488090300001204, 0.5518364000599831, 0.719840400153771, 0.8721698999870569, 0.936200900003314, 1.0560340001247823]",,,,,,,,,,,,,,,,,,,,,,,,,,,,,,,,,,,,,17,001,D,2023_Feb_22_1045,student_TT_local,2021.1.4,47.98911223669757,
,None,None,None,None,None,None,None,None,None,None,savant,induce,6.5,7.5,video&audio/sentence4_TT_3X.mp4,video&audio/mussel_TT_3X.mp4,cortex,mussel,None,,,,,,,,,,,0,14,14,21,,,,,,,,,,,,,,,,,,,,,,,,,,,,,,,,,,,,,,,,,,,,,,,,,,,,,,,,,None, savant,"['s', 'a', 'v', 'a', 'n', 't', 'return']","[0.3283716000150889, 0.37630110001191497, 0.6646229999605566, 0.7365672998130322, 0.8642895999364555, 1.0005404998082668, 1.1684469999745488]",,,,,,,,,,,,,,,,,,,,,,,,,,,,,,,,,,,,,17,001,D,2023_Feb_22_1045,student_TT_local,2021.1.4,47.98911223669757,
,None,None,None,None,None,None,None,None,None,None,satire,mangle,6.5,7.5,video&audio/sentence1_TT_3X.mp4,video&audio/warble_TT_3X.mp4,devise,warble,None,,,,,,,,,,,0,15,15,24,,,,,,,,,,,,,,,,,,,,,,,,,,,,,,,,,,,,,,,,,,,,,,,,,,,,,,,,,None, satire,"['s', 'a', 't', 'i', 'r', 'e', 'return']","[0.28644079994410276, 0.37425430002622306, 0.6864287999924272, 0.7586141999345273, 0.9103266999591142, 0.9744384998921305, 1.1103618000634015]",,,,,,,,,,,,,,,,,,,,,,,,,,,,,,,,,,,,,17,001,D,2023_Feb_22_1045,student_TT_local,2021.1.4,47.98911223669757,
,None,None,None,None,None,None,None,None,None,None,sonnet,hearth,19.5,20.5,video&audio/Sentence3_touch_edited.mp4,video&audio/herbal_touch_edited.mp4,hippie,herbal,None,,,,,,,,,,,0,16,16,14,,,,,,,,,,,,,,,,,,,,,,,,,,,,,,,,,,,,,,,,,,,,,,,,,,,,,,,,,None, sonnet,"['s', 'o', 'n', 'n', 'e', 't', 'return']","[0.27308530011214316, 0.35353490011766553, 0.5930149001069367, 0.7209513001143932, 0.8331252001225948, 0.9129876000806689, 1.049050300149247]",,,,,,,,,,,,,,,,,,,,,,,,,,,,,,,,,,,,,17,001,D,2023_Feb_22_1045,student_TT_local,2021.1.4,47.98911223669757,
,None,None,None,None,None,None,None,None,None,None,legion,campus,6.5,7.5,video&audio/sentence6_TT_3X.mp4,video&audio/allure_TT_3X.mp4,forage,allure,None,,,,,,,,,,,0,17,17,29,,,,,,,,,,,,,,,,,,,,,,,,,,,,,,,,,,,,,,,,,,,,,,,,,,,,,,,,,None, legion,"['l', 'e', 'g', 'i', 'o', 'n', 'return']","[0.2728959999512881, 0.36091029993258417, 0.44070470007136464, 0.5448632000479847, 0.7209723999258131, 0.9528999000322074, 1.2327904000412673]",,,,,,,,,,,,,,,,,,,,,,,,,,,,,,,,,,,,,17,001,D,2023_Feb_22_1045,student_TT_local,2021.1.4,47.98911223669757,
,None,None,None,None,None,None,None,None,None,None,musket,meddle,6.5,7.5,video&audio/sentence2_TT_3X.mp4,video&audio/divert_TT_3X.mp4,kipper,divert,None,,,,,,,,,,,0,18,18,25,,,,,,,,,,,,,,,,,,,,,,,,,,,,,,,,,,,,,,,,,,,,,,,,,,,,,,,,,None, musket,"['m', 's', 'u', 'backspace', 'backspace', 'u', 's', 'k', 'e', 't', 'return']","[0.11130150011740625, 0.31906830007210374, 0.3909522001631558, 0.6629639000166208, 0.7749779000878334, 0.9912511000875384, 1.1033736001700163, 1.215351400198415, 1.3430549001786858, 1.4232087000273168, 1.4870911000762135]",,,,,,,,,,,,,,,,,,,,,,,,,,,,,,,,,,,,,17,001,D,2023_Feb_22_1045,student_TT_local,2021.1.4,47.98911223669757,
,"While you watch the video, imagine yourself typing the word on the screen, like how you did in the imagery practice. While you watch the video and imagine this, rest your hands on your keyboard but DO NOT type until AFTER you see the typing prompt.

Press 'enter/return' to go to the next page.","While watching the video, imagine yourself typing the word on the screen, like how you did in the imagery practice. While you watch the video and imagine this, rest your hands on your keyboard but DO NOT type until AFTER you see the typing prompt.

Press 'enter/return' to go to the next page.",video&audio/Example_AOMI_imagine.png,1.6,1,butter,6.5,7.5,video&audio/amount_TT_3X.mp4,video&audio/butter_TT_3X.mp4,plight,metric,19.5,20.5,video&audio/Sentence2_touch_edited.mp4,video&audio/eatery_touch_edited.mp4,ascend,eatery,2 = AOMIspec,,,,,,,,,,,0,19,19,1,,,,,,,,,,,,,,,,,,,,,,,,,,,,,,,,,,,,,,,,,,,,,,,,,,,,,,,,,None, plight,"['p', 'l', 'i', 'g', 'h', 't', 'return']","[0.2879387999419123, 0.48797530005685985, 0.687944500008598, 0.7521448000334203, 0.8561519999057055, 0.9680105000734329, 1.1123502000700682]",,,,,,,,,,,,,,,,,,,,,,,,,,,,,,,,,,,,,17,001,D,2023_Feb_22_1045,student_TT_local,2021.1.4,47.98911223669757,
,"This is Section 2.

In this section, your task will be the same as before - that is, to type the word you see on the screen AFTER the typing prompt. However, rather than just seeing the word before typing, you will also see a video of someone typing different words to what you will need to type at different speeds. 

Press 'enter/return' to go to the next page.","This is Section 4. 

In this section, your task will be the same as before - that is, to type the word you see on the screen after the typing prompt. You will see a video again, like in Section 2, only this time, the video will show someone the same word that you must type at different speeds. 

Press 'enter/return' to go to the next page.",video&audio/Example_AOMI_layout.png,1.6,0.6,afford,19.5,20.5,video&audio/amount_touch_edited.mp4,video&audio/afford_touch_edited.mp4,vanity,hinder,19.5,20.5,video&audio/Sentence1_touch_edited.mp4,video&audio/breach_touch_edited.mp4,matrix,breach,1 = AOMIgen,,,,,,,,,,,0,20,20,0,,,,,,,,,,,,,,,,,,,,,,,,,,,,,,,,,,,,,,,,,,,,,,,,,,,,,,,,,None, vanity,"['v', 'a', 'n', 'i', 't', 'y', 'return']","[0.3136597000993788, 0.37766420003026724, 0.489623999921605, 0.6817761000711471, 0.8257280001416802, 0.9140792000107467, 1.0577265000902116]",,,,,,,,,,,,,,,,,,,,,,,,,,,,,,,,,,,,,17,001,D,2023_Feb_22_1045,student_TT_local,2021.1.4,47.98911223669757,
,None,None,None,None,None,None,None,None,None,None,impose,feudal,6.5,7.5,video&audio/sentence3_TT_3X.mp4,video&audio/matron_TT_3X.mp4,subdue,matron,None,,,,,,,,,,,0,21,21,26,,,,,,,,,,,,,,,,,,,,,,,,,,,,,,,,,,,,,,,,,,,,,,,,,,,,,,,,,None, impose,"['i', 'm', 'p', 'o', 's', 'e', 'return']","[0.26012629992328584, 0.468103300081566, 0.6522244999650866, 0.8046051000710577, 0.8922423999756575, 0.9563271999359131, 1.0923349999357015]",,,,,,,,,,,,,,,,,,,,,,,,,,,,,,,,,,,,,17,001,D,2023_Feb_22_1045,student_TT_local,2021.1.4,47.98911223669757,
,None,None,None,None,None,None,None,None,None,None,ordain,patent,19.5,20.5,video&audio/Sentence6_touch_edited.mp4,video&audio/defame_touch_edited.mp4,covert,defame,None,,,,,,,,,,,0,22,22,11,,,,,,,,,,,,,,,,,,,,,,,,,,,,,,,,,,,,,,,,,,,,,,,,,,,,,,,,,None, ordain,"['o', 'r', 'd', 'a', 'i', 'n', 'return']","[0.30545679992064834, 0.3693637999240309, 0.5692755000200123, 0.6657730001024902, 0.7453237001318485, 0.9212178001180291, 1.1135923000983894]",,,,,,,,,,,,,,,,,,,,,,,,,,,,,,,,,,,,,17,001,D,2023_Feb_22_1045,student_TT_local,2021.1.4,47.98911223669757,
,None,None,None,None,None,None,None,None,None,None,sherry,zephyr,19.5,20.5,video&audio/Sentence5_touch_edited.mp4,video&audio/fusion_touch_edited.mp4,obsess,fusion,None,,,,,,,,,,,0,23,23,10,,,,,,,,,,,,,,,,,,,,,,,,,,,,,,,,,,,,,,,,,,,,,,,,,,,,,,,,,None, sherry,"['s', 'h', 'e', 'r', 'r', 'y', 'return']","[0.22633929993025959, 0.3143774999771267, 0.42654989985749125, 0.4981237000320107, 0.6421954999677837, 1.2179592999164015, 1.5541677000001073]",,,,,,,,,,,,,,,,,,,,,,,,,,,,,,,,,,,,,17,001,D,2023_Feb_22_1045,student_TT_local,2021.1.4,47.98911223669757,
,None,None,None,None,None,None,None,None,None,None,goblet,befall,19.5,20.5,video&audio/Sentence3_touch_edited.mp4,video&audio/ration_touch_edited.mp4,solemn,ration,None,,,,,,,,,,,0,24,24,8,,,,,,,,,,,,,,,,,,,,,,,,,,,,,,,,,,,,,,,,,,,,,,,,,,,,,,,,,None, goblet,"['g', 'o', 'b', 'l', 'e', 't', 'return']","[0.29266889998689294, 0.39673150004819036, 0.5169464000500739, 0.604653500020504, 0.7808592000510544, 0.8529748001601547, 0.9329814000520855]",,,,,,,,,,,,,,,,,,,,,,,,,,,,,,,,,,,,,17,001,D,2023_Feb_22_1045,student_TT_local,2021.1.4,47.98911223669757,
,None,None,None,None,None,None,None,None,None,None,potent,tandem,6.5,7.5,video&audio/sentence4_TT_3X.mp4,video&audio/origin_TT_3X.mp4,falter,origin,None,,,,,,,,,,,0,25,25,15,,,,,,,,,,,,,,,,,,,,,,,,,,,,,,,,,,,,,,,,,,,,,,,,,,,,,,,,,None, potent,"['p', 'o', 't', 'e', 'n', 't', 'return']","[0.28090759995393455, 0.44865489983931184, 0.5608895998448133, 0.6330114000011235, 0.7206476000137627, 0.8246706000063568, 0.9770263999234885]",,,,,,,,,,,,,,,,,,,,,,,,,,,,,,,,,,,,,17,001,D,2023_Feb_22_1045,student_TT_local,2021.1.4,47.98911223669757,
,None,None,None,None,None,None,None,None,None,None,manure,girdle,6.5,7.5,video&audio/sentence6_TT_3X.mp4,video&audio/linear_TT_3X.mp4,belfry,linear,None,,,,,,,,,,,0,26,26,23,,,,,,,,,,,,,,,,,,,,,,,,,,,,,,,,,,,,,,,,,,,,,,,,,,,,,,,,,None, manure,"['m', 'a', 'n', 'u', 'r', 'e', 'return']","[0.14505810011178255, 0.2815254998859018, 0.36924559995532036, 0.5532345999963582, 0.6331410000566393, 0.7131378999911249, 0.9696774000767618]",,,,,,,,,,,,,,,,,,,,,,,,,,,,,,,,,,,,,17,001,D,2023_Feb_22_1045,student_TT_local,2021.1.4,47.98911223669757,
,None,None,None,None,None,None,None,None,None,None,revolt,joiner,19.5,20.5,video&audio/Sentence6_touch_edited.mp4,video&audio/apathy_touch_edited.mp4,virile,apathy,None,,,,,,,,,,,0,27,27,5,,,,,,,,,,,,,,,,,,,,,,,,,,,,,,,,,,,,,,,,,,,,,,,,,,,,,,,,,['r'], revolt,"['r', 'e', 'o', 'l', 'backspace', 'backspace', 'v', 'o', 'l', 't', 'return']","[0.33065770007669926, 0.3942003999836743, 0.5060771000571549, 0.6740990001708269, 0.9302751000504941, 1.122637800173834, 1.25038760015741, 1.3224914001766592, 1.4741936000064015, 1.5702764000743628, 1.706561699975282]",[2.333157100016251],,,,,,,,,,,,,,,,,,,,,,,,,,,,,,,,,,,,17,001,D,2023_Feb_22_1045,student_TT_local,2021.1.4,47.98911223669757,
,None,None,None,None,None,None,None,None,None,None,deduct,jailer,6.5,7.5,video&audio/sentence5_TT_3X.mp4,video&audio/nettle_TT_3X.mp4,plasma,nettle,None,,,,,,,,,,,0,28,28,16,,,,,,,,,,,,,,,,,,,,,,,,,,,,,,,,,,,,,,,,,,,,,,,,,,,,,,,,,None, deduct,"['d', 'e', 'd', 'u', 'c', 't', 'return']","[0.3914616999682039, 0.5753975000698119, 0.6794290000107139, 0.8311902000568807, 0.959591899998486, 1.1591882000211626, 1.2634366999845952]",,,,,,,,,,,,,,,,,,,,,,,,,,,,,,,,,,,,,17,001,D,2023_Feb_22_1045,student_TT_local,2021.1.4,47.98911223669757,
,"Remember to type as QUICKLY and ACCURATELY as possible after the 'get ready' prompt.

Ask the experimenter any questions now. Please put on the headphones.

You will get one practice trial. Press 'enter/return' when you are ready to start the practice.","Remember to type as QUICKLY and ACCURATELY as you can after the 'get ready' prompt.

Ask the experimenter any questions now. Please put on the headphones.

You will get one practice trial. Press 'enter/return' when you are ready to start the practice.",video&audio/Example_AOMI_total.png,1.8,0.7,None,None,None,None,None,jargon,oppose,19.5,20.5,video&audio/Sentence3_touch_edited.mp4,video&audio/ghetto_touch_edited.mp4,frugal,ghetto,None,,,,,,,,,,,0,29,29,2,,,,,,,,,,,,,,,,,,,,,,,,,,,,,,,,,,,,,,,,,,,,,,,,,,,,,,,,,None, jargon,"['j', 'a', 'r', 'g', 'o', 'n', 'return']","[0.3005404998548329, 0.39673969987779856, 0.43651569983921945, 0.628586599836126, 0.6926517998799682, 0.8526528000365943, 1.0606241999194026]",,,,,,,,,,,,,,,,,,,,,,,,,,,,,,,,,,,,,17,001,D,2023_Feb_22_1045,student_TT_local,2021.1.4,47.98911223669757,
,,,,,,,,,,,,,,,,,,,,typingRatingScale.png,"How would you rate your typing performance in the previous section?

Press a number on your keyboard according to the rating scale below to give your answer. Your first answer will be accepted.",,,,,,,,,,,,,0,0,0,0,,,,,,,,,,,,,,,,,,,,,,,,,,,,,,,,,,,,,,,,,,,,,,,,,,,,,,,,,,['5'],[18.204742500092834],,,,,,,,,,,,,,,,,,,,,,,,,,,,,,,,,,17,001,D,2023_Feb_22_1045,student_TT_local,2021.1.4,47.98911223669757,
,,,,,,,,,,,,,,,,,,,,imageryCheckScale.png,"In the previous section did you imagine yourself typing?

Press a number on your keyboard according to the rating scale below to give your answer. Your first answer will be accepted.",,,,,,,,,,,,,0,1,1,1,,,,,,,,,,,,,,,,,,,,,,,,,,,,,,,,,,,,,,,,,,,,,,,,,,,,,,,,,,['1'],[15.351167199900374],,,,,,,,,,,,,,,,,,,,,,,,,,,,,,,,,,17,001,D,2023_Feb_22_1045,student_TT_local,2021.1.4,47.98911223669757,
,None,None,None,None,None,None,None,None,None,None,brazen,fungal,6.5,7.5,video&audio/sentence5_TT_3X.mp4,video&audio/mucous_TT_3X.mp4,subtle,mucous,None,,,,,,,,,,,,,,,,,,,,,,,,,,,0,0,0,22,,,,,,,,,,,,,,,,,,,,,,,,,,,,,,,,,,,,,,,,,,,,,,,,None,None,"['b', 'u', 't', 't', 'e', 'r', 'return']","[0.6699276999570429, 0.9020382000599056, 1.3018654000479728, 1.4142569000832736, 1.6057979001197964, 1.6861344000790268, 1.8220427001360804]",None, subtle,"['s', 'u', 'b', 't', 'l', 'e', 'return']","[0.4479802001733333, 0.5601800000295043, 0.7840524001512676, 0.9283517999574542, 1.0324536000844091, 1.1842439000029117, 1.3360512000508606]",,,,,,,,,,,,,,,,,,,,,,,,,,17,001,D,2023_Feb_22_1045,student_TT_local,2021.1.4,47.98911223669757,
,None,None,None,None,None,None,None,None,None,None,parole,hamlet,19.5,20.5,video&audio/Sentence4_touch_edited.mp4,video&audio/shroud_touch_edited.mp4,jackal,shroud,None,,,,,,,,,,,,,,,,,,,,,,,,,,,0,1,1,9,,,,,,,,,,,,,,,,,,,,,,,,,,,,,,,,,,,,,,,,,,,,,,,,,None,,,None, jackal,"['j', 'a', 'c', 'k', 'a', 'l', 'return']","[0.4078126000240445, 0.5356991000007838, 0.6641311999410391, 0.7676773001439869, 0.9361823000945151, 1.063641200074926, 1.4877766999416053]",,,,,,,,,,,,,,,,,,,,,,,,,,17,001,D,2023_Feb_22_1045,student_TT_local,2021.1.4,47.98911223669757,
,None,None,None,None,None,None,None,None,None,None,critic,binder,19.5,20.5,video&audio/Sentence1_touch_edited.mp4,video&audio/tamper_touch_edited.mp4,confer,tamper,None,,,,,,,,,,,,,,,,,,,,,,,,,,,0,2,2,12,,,,,,,,,,,,,,,,,,,,,,,,,,,,,,,,,,,,,,,,,,,,,,,,,None,,,None, confer,"['c', 'o', 'n', 'f', 'e', 'r', 'return']","[0.8880044999532402, 0.9921109999995679, 1.2081963999662548, 1.3119399000424892, 1.4478954998776317, 1.5439641999546438, 1.704009999986738]",,,,,,,,,,,,,,,,,,,,,,,,,,17,001,D,2023_Feb_22_1045,student_TT_local,2021.1.4,47.98911223669757,
,None,None,None,None,None,None,None,None,None,None,manure,girdle,6.5,7.5,video&audio/sentence6_TT_3X.mp4,video&audio/linear_TT_3X.mp4,belfry,linear,None,,,,,,,,,,,,,,,,,,,,,,,,,,,0,3,3,23,,,,,,,,,,,,,,,,,,,,,,,,,,,,,,,,,,,,,,,,,,,,,,,,,None,,,None, belfry,"['b', 'e', 'l', 'f', 'r', 'y', 'return']","[0.6188113000243902, 0.7148385001346469, 0.9068227000534534, 0.9868005001917481, 1.186796500114724, 1.2668252000585198, 1.522679200163111]",,,,,,,,,,,,,,,,,,,,,,,,,,17,001,D,2023_Feb_22_1045,student_TT_local,2021.1.4,47.98911223669757,
,None,None,None,None,None,None,None,None,None,None,goblet,befall,19.5,20.5,video&audio/Sentence3_touch_edited.mp4,video&audio/ration_touch_edited.mp4,solemn,ration,None,,,,,,,,,,,,,,,,,,,,,,,,,,,0,4,4,8,,,,,,,,,,,,,,,,,,,,,,,,,,,,,,,,,,,,,,,,,,,,,,,,,None,,,None, solemn,"['s', 'o', 'l', 'e', 'm', 'n', 'return']","[0.33404610003344715, 0.4381136998999864, 0.6460138000547886, 0.7581378000322729, 0.8940745000727475, 1.0782792998943478, 1.3501524000894278]",,,,,,,,,,,,,,,,,,,,,,,,,,17,001,D,2023_Feb_22_1045,student_TT_local,2021.1.4,47.98911223669757,
,None,None,None,None,None,None,None,None,None,None,pursue,caviar,6.5,7.5,video&audio/sentence3_TT_3X.mp4,video&audio/shrill_TT_3X.mp4,piston,shrill,None,,,,,,,,,,,,,,,,,,,,,,,,,,,0,5,5,20,,,,,,,,,,,,,,,,,,,,,,,,,,,,,,,,,,,,,,,,,,,,,,,,,None,,,None, piston,"['p', 'i', 's', 't', 'o', 'n', 'return']","[0.2853492998983711, 0.6052246000617743, 0.7333821000065655, 0.8293278999626637, 0.9012243000324816, 1.0613134000450373, 1.27740369993262]",,,,,,,,,,,,,,,,,,,,,,,,,,17,001,D,2023_Feb_22_1045,student_TT_local,2021.1.4,47.98911223669757,
,None,None,None,None,None,None,None,None,None,None,sonnet,hearth,19.5,20.5,video&audio/Sentence3_touch_edited.mp4,video&audio/herbal_touch_edited.mp4,hippie,herbal,None,,,,,,,,,,,,,,,,,,,,,,,,,,,0,6,6,14,,,,,,,,,,,,,,,,,,,,,,,,,,,,,,,,,,,,,,,,,,,,,,,,,None,,,None, hippie,"['h', 'i', 'p', 'p', 'i', 'e', 'return']","[0.466357400175184, 0.6823321001138538, 0.9147705000359565, 1.0422062000725418, 1.2502324001397938, 1.3940827001351863, 1.5387242999859154]",,,,,,,,,,,,,,,,,,,,,,,,,,17,001,D,2023_Feb_22_1045,student_TT_local,2021.1.4,47.98911223669757,
,None,None,None,None,None,None,None,None,None,None,mirage,shrewd,19.5,20.5,video&audio/Sentence1_touch_edited.mp4,video&audio/revoke_touch_edited.mp4,malady,revoke,None,,,,,,,,,,,,,,,,,,,,,,,,,,,0,7,7,6,,,,,,,,,,,,,,,,,,,,,,,,,,,,,,,,,,,,,,,,,,,,,,,,,None,,,None, malady,"['m', 'l', 'a', 'd', 'y', 'return']","[0.4107818999327719, 0.6346994999330491, 0.7869356998708099, 1.010713400086388, 1.0986844999715686, 1.4108084000181407]",,,,,,,,,,,,,,,,,,,,,,,,,,17,001,D,2023_Feb_22_1045,student_TT_local,2021.1.4,47.98911223669757,
,"Remember to type as QUICKLY and ACCURATELY as possible after the 'get ready' prompt.

Ask the experimenter any questions now. Please put on the headphones.

You will get one practice trial. Press 'enter/return' when you are ready to start the practice.","Remember to type as QUICKLY and ACCURATELY as you can after the 'get ready' prompt.

Ask the experimenter any questions now. Please put on the headphones.

You will get one practice trial. Press 'enter/return' when you are ready to start the practice.",video&audio/Example_AOMI_total.png,1.8,0.7,None,None,None,None,None,jargon,oppose,19.5,20.5,video&audio/Sentence3_touch_edited.mp4,video&audio/ghetto_touch_edited.mp4,frugal,ghetto,None,,,,,,,,,,,,,,,,,,,,,,,,,,,0,8,8,2,,,,,,,,,,,,,,,,,,,,,,,,,,,,,,,,,,,,,,,,,,,,,,,,,None,,,None, frugal,"['f', 'r', 'u', 'g', 'a', 'l', 'return']","[0.29931099992245436, 0.5464897998608649, 0.6828266000375152, 0.8107671998441219, 0.9707484999671578, 1.091095000039786, 1.4107605000026524]",,,,,,,,,,,,,,,,,,,,,,,,,,17,001,D,2023_Feb_22_1045,student_TT_local,2021.1.4,47.98911223669757,
,None,None,None,None,None,None,None,None,None,None,infirm,oblige,19.5,20.5,video&audio/Sentence4_touch_edited.mp4,video&audio/mystic_touch_edited.mp4,pulpit,mystic,None,,,,,,,,,,,,,,,,,,,,,,,,,,,0,9,9,3,,,,,,,,,,,,,,,,,,,,,,,,,,,,,,,,,,,,,,,,,,,,,,,,,None,,,None, pulpit,"['p', 'u', 'l', 'p', 'i', 't', 'return']","[0.3139113001525402, 0.6982201000209898, 0.9541110000573099, 1.1301206999924034, 1.3542931999545544, 1.6182036001700908, 1.8261231000069529]",,,,,,,,,,,,,,,,,,,,,,,,,,17,001,D,2023_Feb_22_1045,student_TT_local,2021.1.4,47.98911223669757,
,None,None,None,None,None,None,None,None,None,None,novice,primal,19.5,20.5,video&audio/Sentence5_touch_edited.mp4,video&audio/entail_touch_edited.mp4,parcel,entail,None,,,,,,,,,,,,,,,,,,,,,,,,,,,0,10,10,4,,,,,,,,,,,,,,,,,,,,,,,,,,,,,,,,,,,,,,,,,,,,,,,,,None,,,None, parcel,"['p', 'a', 'r', 'c', 'e', 'l', 'return']","[0.368914500111714, 0.49636770016513765, 0.5844005001708865, 0.8564103001262993, 0.9445436999667436, 1.0483133001253009, 1.2803414000663906]",,,,,,,,,,,,,,,,,,,,,,,,,,17,001,D,2023_Feb_22_1045,student_TT_local,2021.1.4,47.98911223669757,
,"While you watch the video, imagine yourself typing the word on the screen, like how you did in the imagery practice. While you watch the video and imagine this, rest your hands on your keyboard but DO NOT type until AFTER you see the typing prompt.

Press 'enter/return' to go to the next page.","While watching the video, imagine yourself typing the word on the screen, like how you did in the imagery practice. While you watch the video and imagine this, rest your hands on your keyboard but DO NOT type until AFTER you see the typing prompt.

Press 'enter/return' to go to the next page.",video&audio/Example_AOMI_imagine.png,1.6,1,butter,6.5,7.5,video&audio/amount_TT_3X.mp4,video&audio/butter_TT_3X.mp4,plight,metric,19.5,20.5,video&audio/Sentence2_touch_edited.mp4,video&audio/eatery_touch_edited.mp4,ascend,eatery,2 = AOMIspec,,,,,,,,,,,,,,,,,,,,,,,,,,,0,11,11,1,,,,,,,,,,,,,,,,,,,,,,,,,,,,,,,,,,,,,,,,,,,,,,,,,None,,,None, ascend,"['a', 's', 'c', 'e', 'n', 'd', 'return']","[0.3577961998526007, 0.43002589978277683, 0.7422103998251259, 0.8298433998133987, 1.0301324999891222, 1.2784875999204814, 1.4865760998800397]",,,,,,,,,,,,,,,,,,,,,,,,,,17,001,D,2023_Feb_22_1045,student_TT_local,2021.1.4,47.98911223669757,
,None,None,None,None,None,None,None,None,None,None,quarry,septic,19.5,20.5,video&audio/Sentence2_touch_edited.mp4,video&audio/innate_touch_edited.mp4,neural,innate,None,,,,,,,,,,,,,,,,,,,,,,,,,,,0,12,12,13,,,,,,,,,,,,,,,,,,,,,,,,,,,,,,,,,,,,,,,,,,,,,,,,,None,,,None, neural,"['n', 'e', 'u', 'r', 'a', 'semicolon', 'backspace', 'l', 'return']","[0.3627414000220597, 0.49894220009446144, 0.7469743001274765, 0.8348906000610441, 0.9306924000848085, 1.0987939001061022, 1.6506084001157433, 2.026710200123489, 2.2106397999450564]",,,,,,,,,,,,,,,,,,,,,,,,,,17,001,D,2023_Feb_22_1045,student_TT_local,2021.1.4,47.98911223669757,
,None,None,None,None,None,None,None,None,None,None,musket,meddle,6.5,7.5,video&audio/sentence2_TT_3X.mp4,video&audio/divert_TT_3X.mp4,kipper,divert,None,,,,,,,,,,,,,,,,,,,,,,,,,,,0,13,13,25,,,,,,,,,,,,,,,,,,,,,,,,,,,,,,,,,,,,,,,,,,,,,,,,,None,,,None, kipper,"['k', 'i', 'p', 'p', 'e', 'r', 'return']","[0.26411759993061423, 0.472051199991256, 0.7119559000711888, 0.8407745999284089, 0.8959590999875218, 0.9683348999824375, 1.08042800007388]",,,,,,,,,,,,,,,,,,,,,,,,,,17,001,D,2023_Feb_22_1045,student_TT_local,2021.1.4,47.98911223669757,
,None,None,None,None,None,None,None,None,None,None,impose,feudal,6.5,7.5,video&audio/sentence3_TT_3X.mp4,video&audio/matron_TT_3X.mp4,subdue,matron,None,,,,,,,,,,,,,,,,,,,,,,,,,,,0,14,14,26,,,,,,,,,,,,,,,,,,,,,,,,,,,,,,,,,,,,,,,,,,,,,,,,,None,,,None, subdue,"['s', 'u', 'b', 'd', 'u', 'e', 'return']","[0.2907828998286277, 0.34691979992203414, 0.5789687000215054, 0.6745817000046372, 0.7795885999221355, 0.8746248998213559, 1.0345963998697698]",,,,,,,,,,,,,,,,,,,,,,,,,,17,001,D,2023_Feb_22_1045,student_TT_local,2021.1.4,47.98911223669757,
,None,None,None,None,None,None,None,None,None,None,legion,campus,6.5,7.5,video&audio/sentence6_TT_3X.mp4,video&audio/allure_TT_3X.mp4,forage,allure,None,,,,,,,,,,,,,,,,,,,,,,,,,,,0,15,15,29,,,,,,,,,,,,,,,,,,,,,,,,,,,,,,,,,,,,,,,,,,,,,,,,,None,,,None, forage,"['f', 'o', 'r', 'a', 'g', 'e', 'return']","[0.30534560000523925, 0.40938760014250875, 0.5851545999757946, 0.673719400074333, 0.8493347000330687, 0.9213074001017958, 1.025348500115797]",,,,,,,,,,,,,,,,,,,,,,,,,,17,001,D,2023_Feb_22_1045,student_TT_local,2021.1.4,47.98911223669757,
,None,None,None,None,None,None,None,None,None,None,revolt,joiner,19.5,20.5,video&audio/Sentence6_touch_edited.mp4,video&audio/apathy_touch_edited.mp4,virile,apathy,None,,,,,,,,,,,,,,,,,,,,,,,,,,,0,16,16,5,,,,,,,,,,,,,,,,,,,,,,,,,,,,,,,,,,,,,,,,,,,,,,,,,None,,,None, virile,"['v', 'i', 'r', 'i', 'l', 'e', 'return']","[0.4204309000633657, 0.5646331999450922, 0.7487123999744654, 0.8284821999259293, 1.0684859999455512, 1.1324829999357462, 1.284541199915111]",,,,,,,,,,,,,,,,,,,,,,,,,,17,001,D,2023_Feb_22_1045,student_TT_local,2021.1.4,47.98911223669757,
,None,None,None,None,None,None,None,None,None,None,satire,mangle,6.5,7.5,video&audio/sentence1_TT_3X.mp4,video&audio/warble_TT_3X.mp4,devise,warble,None,,,,,,,,,,,,,,,,,,,,,,,,,,,0,17,17,24,,,,,,,,,,,,,,,,,,,,,,,,,,,,,,,,,,,,,,,,,,,,,,,,,None,,,None, devise,"['d', 'e', 'v', 'i', 's', 'e', 'return']","[0.4537961999885738, 0.493538900045678, 0.733437400078401, 0.8294844999909401, 0.9814905999228358, 1.070102599915117, 1.1416901999618858]",,,,,,,,,,,,,,,,,,,,,,,,,,17,001,D,2023_Feb_22_1045,student_TT_local,2021.1.4,47.98911223669757,
,None,None,None,None,None,None,None,None,None,None,strife,delude,19.5,20.5,video&audio/Sentence2_touch_edited.mp4,video&audio/galley_touch_edited.mp4,tariff,galley,None,,,,,,,,,,,,,,,,,,,,,,,,,,,0,18,18,7,,,,,,,,,,,,,,,,,,,,,,,,,,,,,,,,,,,,,,,,,,,,,,,,,None,,,None, tariff,"['t', 'a', 'r', 'i', 'f', 'f', 'return']","[0.3303425998892635, 0.5543797998689115, 0.6344824999105185, 0.7302868999540806, 0.9228837999980897, 1.0345421999227256, 1.1784129999578]",,,,,,,,,,,,,,,,,,,,,,,,,,17,001,D,2023_Feb_22_1045,student_TT_local,2021.1.4,47.98911223669757,
,None,None,None,None,None,None,None,None,None,None,deduct,jailer,6.5,7.5,video&audio/sentence5_TT_3X.mp4,video&audio/nettle_TT_3X.mp4,plasma,nettle,None,,,,,,,,,,,,,,,,,,,,,,,,,,,0,19,19,16,,,,,,,,,,,,,,,,,,,,,,,,,,,,,,,,,,,,,,,,,,,,,,,,,None,,,None, plasma,"['p', 'l', 'a', 's', 'm', 'a', 'return']","[0.36229089996777475, 0.45012559997849166, 0.610023699933663, 0.6662587998434901, 0.7861732000019401, 0.8900646998081356, 1.034026299836114]",,,,,,,,,,,,,,,,,,,,,,,,,,17,001,D,2023_Feb_22_1045,student_TT_local,2021.1.4,47.98911223669757,
,None,None,None,None,None,None,None,None,None,None,savant,induce,6.5,7.5,video&audio/sentence4_TT_3X.mp4,video&audio/mussel_TT_3X.mp4,cortex,mussel,None,,,,,,,,,,,,,,,,,,,,,,,,,,,0,20,20,21,,,,,,,,,,,,,,,,,,,,,,,,,,,,,,,,,,,,,,,,,,,,,,,,,None,,,None, cortex,"['c', 'o', 'r', 't', 'e', 'x', 'return']","[0.21936210012063384, 0.29940380016341805, 0.5313703999854624, 0.5555434999987483, 0.7310651000589132, 1.0111208001617342, 1.147152200108394]",,,,,,,,,,,,,,,,,,,,,,,,,,17,001,D,2023_Feb_22_1045,student_TT_local,2021.1.4,47.98911223669757,
,None,None,None,None,None,None,None,None,None,None,ordain,patent,19.5,20.5,video&audio/Sentence6_touch_edited.mp4,video&audio/defame_touch_edited.mp4,covert,defame,None,,,,,,,,,,,,,,,,,,,,,,,,,,,0,21,21,11,,,,,,,,,,,,,,,,,,,,,,,,,,,,,,,,,,,,,,,,,,,,,,,,,None,,,None, covert,"['c', 'o', 'v', 'e', 'r', 't', 'return']","[0.3402994000352919, 0.45226529985666275, 0.6204574999865144, 0.8046210999600589, 0.8765374000649899, 1.0842865998856723, 1.196381099987775]",,,,,,,,,,,,,,,,,,,,,,,,,,17,001,D,2023_Feb_22_1045,student_TT_local,2021.1.4,47.98911223669757,
,None,None,None,None,None,None,None,None,None,None,sherry,zephyr,19.5,20.5,video&audio/Sentence5_touch_edited.mp4,video&audio/fusion_touch_edited.mp4,obsess,fusion,None,,,,,,,,,,,,,,,,,,,,,,,,,,,0,22,22,10,,,,,,,,,,,,,,,,,,,,,,,,,,,,,,,,,,,,,,,,,,,,,,,,,None,,,None, obsess,"['o', 'b', 's', 's', 'backspace', 'e', 's', 's', 'return']","[0.2927230999339372, 0.6608476999681443, 0.7891146000474691, 0.9333472999278456, 1.3092389998491853, 1.413199899950996, 1.5731670998502523, 1.7168107000179589, 1.876868899911642]",,,,,,,,,,,,,,,,,,,,,,,,,,17,001,D,2023_Feb_22_1045,student_TT_local,2021.1.4,47.98911223669757,
,None,None,None,None,None,None,None,None,None,None,murmur,cobble,6.5,7.5,video&audio/sentence2_TT_3X.mp4,video&audio/export_TT_3X.mp4,cervix,export,None,,,,,,,,,,,,,,,,,,,,,,,,,,,0,23,23,19,,,,,,,,,,,,,,,,,,,,,,,,,,,,,,,,,,,,,,,,,,,,,,,,,None,,,None, cervix,"['c', 'e', 'r', 'v', 'i', 'x', 'return']","[0.2910903000738472, 0.4511128000449389, 0.5310579999350011, 0.8191718000452965, 0.9471152001060545, 1.0913893999531865, 1.355116599937901]",,,,,,,,,,,,,,,,,,,,,,,,,,17,001,D,2023_Feb_22_1045,student_TT_local,2021.1.4,47.98911223669757,
,None,None,None,None,None,None,None,None,None,None,coerce,clergy,6.5,7.5,video&audio/sentence6_TT_3X.mp4,video&audio/portal_TT_3X.mp4,ritual,portal,None,,,,,,,,,,,,,,,,,,,,,,,,,,,0,24,24,17,,,,,,,,,,,,,,,,,,,,,,,,,,,,,,,,,,,,,,,,,,,,,,,,,None,,,None, ritual,"['r', 'i', 't', 'u', 'a', 'l', 'return']","[0.30599389993585646, 0.37002000003121793, 0.5459817000664771, 0.6421988001093268, 0.7784705001395196, 0.9221024999860674, 1.0981402001343668]",,,,,,,,,,,,,,,,,,,,,,,,,,17,001,D,2023_Feb_22_1045,student_TT_local,2021.1.4,47.98911223669757,
,"This is Section 2.

In this section, your task will be the same as before - that is, to type the word you see on the screen AFTER the typing prompt. However, rather than just seeing the word before typing, you will also see a video of someone typing different words to what you will need to type at different speeds. 

Press 'enter/return' to go to the next page.","This is Section 4. 

In this section, your task will be the same as before - that is, to type the word you see on the screen after the typing prompt. You will see a video again, like in Section 2, only this time, the video will show someone the same word that you must type at different speeds. 

Press 'enter/return' to go to the next page.",video&audio/Example_AOMI_layout.png,1.6,0.6,afford,19.5,20.5,video&audio/amount_touch_edited.mp4,video&audio/afford_touch_edited.mp4,vanity,hinder,19.5,20.5,video&audio/Sentence1_touch_edited.mp4,video&audio/breach_touch_edited.mp4,matrix,breach,1 = AOMIgen,,,,,,,,,,,,,,,,,,,,,,,,,,,0,25,25,0,,,,,,,,,,,,,,,,,,,,,,,,,,,,,,,,,,,,,,,,,,,,,,,,,None,,,None, matrix,"['m', 'a', 't', 'r', 'i', 'x', 'return']","[0.3832408001180738, 0.4628755000885576, 0.6632230000104755, 0.7909951000474393, 0.8788758001755923, 1.0952988001517951, 1.2789412001147866]",,,,,,,,,,,,,,,,,,,,,,,,,,17,001,D,2023_Feb_22_1045,student_TT_local,2021.1.4,47.98911223669757,
,None,None,None,None,None,None,None,None,None,None,convoy,output,6.5,7.5,video&audio/sentence1_TT_3X.mp4,video&audio/uphold_TT_3X.mp4,debtor,uphold,None,,,,,,,,,,,,,,,,,,,,,,,,,,,0,26,26,18,,,,,,,,,,,,,,,,,,,,,,,,,,,,,,,,,,,,,,,,,,,,,,,,,None,,,None, debtor,"['d', 'e', 'b', 't', 'o', 'return']","[0.632432600017637, 0.6483491000253707, 0.8001706001814455, 0.9764965001959354, 1.0963877001777291, 1.3207420001272112]",,,,,,,,,,,,,,,,,,,,,,,,,,17,001,D,2023_Feb_22_1045,student_TT_local,2021.1.4,47.98911223669757,
,None,None,None,None,None,None,None,None,None,None,potent,tandem,6.5,7.5,video&audio/sentence4_TT_3X.mp4,video&audio/origin_TT_3X.mp4,falter,origin,None,,,,,,,,,,,,,,,,,,,,,,,,,,,0,27,27,15,,,,,,,,,,,,,,,,,,,,,,,,,,,,,,,,,,,,,,,,,,,,,,,,,None,,,None, falter,"['f', 'a', 'l', 't', 'e', 'r', 'return']","[0.3308995000552386, 0.386545600136742, 0.4746662999968976, 0.6751644001342356, 0.8345451999921352, 0.9065493999514729, 0.9626126000657678]",,,,,,,,,,,,,,,,,,,,,,,,,,17,001,D,2023_Feb_22_1045,student_TT_local,2021.1.4,47.98911223669757,
,None,None,None,None,None,None,None,None,None,None,fodder,trench,6.5,7.5,video&audio/sentence4_TT_3X.mp4,video&audio/ethnic_TT_3X.mp4,botany,ethnic,None,,,,,,,,,,,,,,,,,,,,,,,,,,,0,28,28,27,,,,,,,,,,,,,,,,,,,,,,,,,,,,,,,,,,,,,,,,,,,,,,,,,None,,,None, botany,"['b', 'o', 'r', 'backspace', 't', 'a', 'n', 'y', 'return']","[0.1288077998906374, 0.4330700000282377, 0.8250374000053853, 1.209111399948597, 1.2569550999905914, 1.4331352999433875, 1.5612955000251532, 1.7931385000701994, 1.920927400002256]",,,,,,,,,,,,,,,,,,,,,,,,,,17,001,D,2023_Feb_22_1045,student_TT_local,2021.1.4,47.98911223669757,
,None,None,None,None,None,None,None,None,None,None,upkeep,parish,6.5,7.5,video&audio/sentence5_TT_3X.mp4,video&audio/gullet_TT_3X.mp4,picket,gullet,None,,,,,,,,,,,,,,,,,,,,,,,,,,,0,29,29,28,,,,,,,,,,,,,,,,,,,,,,,,,,,,,,,,,,,,,,,,,,,,,,,,,None,,,None, picket,"['p', 'i', 'c', 'k', 'e', 't', 'return']","[0.279904100112617, 0.575746700167656, 0.6558139000553638, 0.7680099999997765, 0.9359574001282454, 0.991813300177455, 1.1843636999838054]",,,,,,,,,,,,,,,,,,,,,,,,,,17,001,D,2023_Feb_22_1045,student_TT_local,2021.1.4,47.98911223669757,
,,,,,,,,,,,,,,,,,,,,typingRatingScale.png,"How would you rate your typing performance in the previous section?

Press a number on your keyboard according to the rating scale below to give your answer. Your first answer will be accepted.",,,,,,,,,,,,,,,,,,,,,,,,,,,,,0,0,0,0,,,,,,,,,,,,,,,,,,,,,,,,,,,,,,,,,,,,,,,,,,,,,,,,,,,,['4'],[6.459291600156575],,,,,,,,,,,,,,,,,,,,,,,,17,001,D,2023_Feb_22_1045,student_TT_local,2021.1.4,47.98911223669757,
,,,,,,,,,,,,,,,,,,,,visualImageryScale.png,"While imagining yourself typing, how clear was your visual image?

Press a number on your keyboard according to the rating scale below to give your answer. Your first answer will be accepted.",,,,,,,,,,,,,,,,,,,,,,,,,,,,,0,1,1,1,,,,,,,,,,,,,,,,,,,,,,,,,,,,,,,,,,,,,,,,,,,,,,,,,,,,['4'],[8.580919399857521],,,,,,,,,,,,,,,,,,,,,,,,17,001,D,2023_Feb_22_1045,student_TT_local,2021.1.4,47.98911223669757,
,,,,,,,,,,,,,,,,,,,,kinestheticImageryScale.png,"While imagining yourself typing, how intense were the sensations associated with the imagined movement?

Press a number on your keyboard according to the rating scale below to give your answer. Your first answer will be accepted.",,,,,,,,,,,,,,,,,,,,,,,,,,,,,0,2,2,2,,,,,,,,,,,,,,,,,,,,,,,,,,,,,,,,,,,,,,,,,,,,,,,,,,,,['4'],[8.831437499960884],,,,,,,,,,,,,,,,,,,,,,,,17,001,D,2023_Feb_22_1045,student_TT_local,2021.1.4,47.98911223669757,
,None,None,None,None,None,None,None,None,None,None,impose,feudal,6.5,7.5,video&audio/sentence3_TT_3X.mp4,video&audio/matron_TT_3X.mp4,subdue,matron,None,,,,,,,,,,,,,,,,,,,,,,,,,,,,,,,,,,,,,,,,,,,0,0,0,26,,,,,,,,,,,,,,,,,,,,,,,,,,,,,,,,,,,,,,,,,,2353.0186358999927,2359.536027800059,None, butter,"['b', 'u', 't', 't', 'e', 'r', 'return']","[0.28738399990834296, 0.3672811998985708, 0.5115113998763263, 0.6318875998258591, 0.8553945999592543, 0.9112573999445885, 1.023150699911639]",2385.6004367000423,2392.1153839000035,"['f', 'e']","[7.168955100001767, 7.31271279999055]", feudal,"['f', 'e', 'u', 'd', 'a', 'l', 'return']","[0.33202759991399944, 0.4195240999106318, 0.5477092999499291, 0.7077891998924315, 0.7636833998840302, 0.8758276998996735, 1.3156632999889553]",,,,,,,,,,,17,001,D,2023_Feb_22_1045,student_TT_local,2021.1.4,47.98911223669757,
,None,None,None,None,None,None,None,None,None,None,manure,girdle,6.5,7.5,video&audio/sentence6_TT_3X.mp4,video&audio/linear_TT_3X.mp4,belfry,linear,None,,,,,,,,,,,,,,,,,,,,,,,,,,,,,,,,,,,,,,,,,,,0,1,1,23,,,,,,,,,,,,,,,,,,,,,,,,,,,,,,,,,,,,,,,,,,,,,,,,2394.4734020000324,2400.989568100078,None,, girdle,"['g', 'i', 'r', 'd', 'l', 'e', 'return']","[0.3644473999738693, 0.5248535999562591, 0.6203171000815928, 0.8203944999258965, 0.8844651998952031, 1.028458199929446, 1.1966355999466032]",,,,,,,,,,,17,001,D,2023_Feb_22_1045,student_TT_local,2021.1.4,47.98911223669757,
,None,None,None,None,None,None,None,None,None,None,ordain,patent,19.5,20.5,video&audio/Sentence6_touch_edited.mp4,video&audio/defame_touch_edited.mp4,covert,defame,None,,,,,,,,,,,,,,,,,,,,,,,,,,,,,,,,,,,,,,,,,,,0,2,2,11,,,,,,,,,,,,,,,,,,,,,,,,,,,,,,,,,,,,,,,,,,,,,,,,2403.222781599965,2422.7369359000586,None,, patent,"['p', 'a', 't', 'e', 'n', 't', 'return']","[0.3812160000670701, 0.48528859997168183, 0.6687755000311881, 0.7649675998836756, 0.8370368999894708, 0.9810118998866528, 1.2849868000485003]",,,,,,,,,,,17,001,D,2023_Feb_22_1045,student_TT_local,2021.1.4,47.98911223669757,
,None,None,None,None,None,None,None,None,None,None,parole,hamlet,19.5,20.5,video&audio/Sentence4_touch_edited.mp4,video&audio/shroud_touch_edited.mp4,jackal,shroud,None,,,,,,,,,,,,,,,,,,,,,,,,,,,,,,,,,,,,,,,,,,,0,3,3,9,,,,,,,,,,,,,,,,,,,,,,,,,,,,,,,,,,,,,,,,,,,,,,,,2425.0536148999818,2444.5681628000457,None,, hamlet,"['h', 'a', 'm', 'l', 'e', 't', 'return']","[0.271105500170961, 0.3667482000309974, 0.49496550019830465, 0.6866594001185149, 0.7669836999848485, 0.8390189001802355, 0.966828600037843]",,,,,,,,,,,17,001,D,2023_Feb_22_1045,student_TT_local,2021.1.4,47.98911223669757,
,None,None,None,None,None,None,None,None,None,None,musket,meddle,6.5,7.5,video&audio/sentence2_TT_3X.mp4,video&audio/divert_TT_3X.mp4,kipper,divert,None,,,,,,,,,,,,,,,,,,,,,,,,,,,,,,,,,,,,,,,,,,,0,4,4,25,,,,,,,,,,,,,,,,,,,,,,,,,,,,,,,,,,,,,,,,,,,,,,,,2446.571199399885,2453.0878260999452,None,, meddle,"['m', 'e', 'd', 'd', 'l', 'e', 'return']","[0.6791067000012845, 0.7671657998580486, 0.8633200998883694, 1.0152312000282109, 1.103180899983272, 1.247541100019589, 1.327195799909532]",,,,,,,,,,,17,001,D,2023_Feb_22_1045,student_TT_local,2021.1.4,47.98911223669757,
,None,None,None,None,None,None,None,None,None,None,sonnet,hearth,19.5,20.5,video&audio/Sentence3_touch_edited.mp4,video&audio/herbal_touch_edited.mp4,hippie,herbal,None,,,,,,,,,,,,,,,,,,,,,,,,,,,,,,,,,,,,,,,,,,,0,5,5,14,,,,,,,,,,,,,,,,,,,,,,,,,,,,,,,,,,,,,,,,,,,,,,,,2455.446104499977,2474.9605527000967,None,, hearh,"['h', 'e', 'a', 'r', 'h', 't', 'backspace', 't', 'backspace', 'h', 'return']","[0.3350677997805178, 0.4553815999533981, 0.5592146997805685, 0.7431254999246448, 0.8950528998393565, 0.9671744999941438, 1.3837642997968942, 1.527662699809298, 1.535214299801737, 1.6473177999723703, 1.847105999942869]",,,,,,,,,,,17,001,D,2023_Feb_22_1045,student_TT_local,2021.1.4,47.98911223669757,
,None,None,None,None,None,None,None,None,None,None,pursue,caviar,6.5,7.5,video&audio/sentence3_TT_3X.mp4,video&audio/shrill_TT_3X.mp4,piston,shrill,None,,,,,,,,,,,,,,,,,,,,,,,,,,,,,,,,,,,,,,,,,,,0,6,6,20,,,,,,,,,,,,,,,,,,,,,,,,,,,,,,,,,,,,,,,,,,,,,,,,2477.8382846000604,2484.3552312999964,None,, caviar,"['c', 'a', 'v', 'i', 'a', 'r', 'return']","[0.4350443999283016, 0.5071807999629527, 0.6909562998916954, 0.7475634999573231, 0.8913640000391752, 0.9789815999101847, 1.1070137999486178]",,,,,,,,,,,17,001,D,2023_Feb_22_1045,student_TT_local,2021.1.4,47.98911223669757,
,"This is Section 2.

In this section, your task will be the same as before - that is, to type the word you see on the screen AFTER the typing prompt. However, rather than just seeing the word before typing, you will also see a video of someone typing different words to what you will need to type at different speeds. 

Press 'enter/return' to go to the next page.","This is Section 4. 

In this section, your task will be the same as before - that is, to type the word you see on the screen after the typing prompt. You will see a video again, like in Section 2, only this time, the video will show someone the same word that you must type at different speeds. 

Press 'enter/return' to go to the next page.",video&audio/Example_AOMI_layout.png,1.6,0.6,afford,19.5,20.5,video&audio/amount_touch_edited.mp4,video&audio/afford_touch_edited.mp4,vanity,hinder,19.5,20.5,video&audio/Sentence1_touch_edited.mp4,video&audio/breach_touch_edited.mp4,matrix,breach,1 = AOMIgen,,,,,,,,,,,,,,,,,,,,,,,,,,,,,,,,,,,,,,,,,,,0,7,7,0,,,,,,,,,,,,,,,,,,,,,,,,,,,,,,,,,,,,,,,,,,,,,,,,2486.5050190999173,2506.0194790000096,None,, hinder,"['h', 'i', 'n', 'd', 'e', 'r', 'return']","[0.3077777000144124, 0.5158065999858081, 0.6840105999726802, 0.7556504998356104, 0.8842294998466969, 0.9799881998915225, 1.075771200004965]",,,,,,,,,,,17,001,D,2023_Feb_22_1045,student_TT_local,2021.1.4,47.98911223669757,
,"Remember to type as QUICKLY and ACCURATELY as possible after the 'get ready' prompt.

Ask the experimenter any questions now. Please put on the headphones.

You will get one practice trial. Press 'enter/return' when you are ready to start the practice.","Remember to type as QUICKLY and ACCURATELY as you can after the 'get ready' prompt.

Ask the experimenter any questions now. Please put on the headphones.

You will get one practice trial. Press 'enter/return' when you are ready to start the practice.",video&audio/Example_AOMI_total.png,1.8,0.7,None,None,None,None,None,jargon,oppose,19.5,20.5,video&audio/Sentence3_touch_edited.mp4,video&audio/ghetto_touch_edited.mp4,frugal,ghetto,None,,,,,,,,,,,,,,,,,,,,,,,,,,,,,,,,,,,,,,,,,,,0,8,8,2,,,,,,,,,,,,,,,,,,,,,,,,,,,,,,,,,,,,,,,,,,,,,,,,2508.1261700999457,2527.6417751999106,None,, oppose,"['o', 'p', 'p', 'o', 's', 'e', 'return']","[0.5653459001332521, 0.8854715002235025, 1.0133520001545548, 1.1815242001321167, 1.30133350007236, 1.4373449000995606, 1.645612500142306]",,,,,,,,,,,17,001,D,2023_Feb_22_1045,student_TT_local,2021.1.4,47.98911223669757,
,None,None,None,None,None,None,None,None,None,None,murmur,cobble,6.5,7.5,video&audio/sentence2_TT_3X.mp4,video&audio/export_TT_3X.mp4,cervix,export,None,,,,,,,,,,,,,,,,,,,,,,,,,,,,,,,,,,,,,,,,,,,0,9,9,19,,,,,,,,,,,,,,,,,,,,,,,,,,,,,,,,,,,,,,,,,,,,,,,,2530.3318696999922,2536.8493047000375,None,, cobble,"['c', 'o', 'b', 'b', 'l', 'e', 'return']","[0.4369944999925792, 0.5969576998613775, 0.8369084999430925, 0.980803000042215, 1.1088580000214279, 1.2208741998765618, 1.3728300998918712]",,,,,,,,,,,17,001,D,2023_Feb_22_1045,student_TT_local,2021.1.4,47.98911223669757,
,None,None,None,None,None,None,None,None,None,None,strife,delude,19.5,20.5,video&audio/Sentence2_touch_edited.mp4,video&audio/galley_touch_edited.mp4,tariff,galley,None,,,,,,,,,,,,,,,,,,,,,,,,,,,,,,,,,,,,,,,,,,,0,10,10,7,,,,,,,,,,,,,,,,,,,,,,,,,,,,,,,,,,,,,,,,,,,,,,,,2657.088943999959,2676.6040457999334,None,, delude,"['d', 'e', 'l', 'u', 'd', 'e', 'return']","[0.43406759994104505, 0.4981641999911517, 0.5618984999600798, 0.7859412000980228, 0.8901472000870854, 1.2899589999578893, 1.3861970000434667]",,,,,,,,,,,17,001,D,2023_Feb_22_1045,student_TT_local,2021.1.4,47.98911223669757,
,None,None,None,None,None,None,None,None,None,None,legion,campus,6.5,7.5,video&audio/sentence6_TT_3X.mp4,video&audio/allure_TT_3X.mp4,forage,allure,None,,,,,,,,,,,,,,,,,,,,,,,,,,,,,,,,,,,,,,,,,,,0,11,11,29,,,,,,,,,,,,,,,,,,,,,,,,,,,,,,,,,,,,,,,,,,,,,,,,2679.0238258000463,2685.5404805999715,None,, campus,"['c', 'a', 'm', 'p', 'u', 's', 'return']","[0.2743034001905471, 0.3147105001844466, 0.40240530017763376, 0.5711128001566976, 0.7704333001747727, 0.8744908000808209, 1.0426971002016217]",,,,,,,,,,,17,001,D,2023_Feb_22_1045,student_TT_local,2021.1.4,47.98911223669757,
,None,None,None,None,None,None,None,None,None,None,satire,mangle,6.5,7.5,video&audio/sentence1_TT_3X.mp4,video&audio/warble_TT_3X.mp4,devise,warble,None,,,,,,,,,,,,,,,,,,,,,,,,,,,,,,,,,,,,,,,,,,,0,12,12,24,,,,,,,,,,,,,,,,,,,,,,,,,,,,,,,,,,,,,,,,,,,,,,,,2687.62695960002,2694.143684099894,None,, mangle,"['m', 'a', 'n', 'g', 'l', 'e', 'return']","[0.25421299994923174, 0.34290809999220073, 0.48643549997359514, 0.5826608000788838, 0.7101439998950809, 0.7586705000139773, 0.9348003000486642]",,,,,,,,,,,17,001,D,2023_Feb_22_1045,student_TT_local,2021.1.4,47.98911223669757,
,None,None,None,None,None,None,None,None,None,None,infirm,oblige,19.5,20.5,video&audio/Sentence4_touch_edited.mp4,video&audio/mystic_touch_edited.mp4,pulpit,mystic,None,,,,,,,,,,,,,,,,,,,,,,,,,,,,,,,,,,,,,,,,,,,0,13,13,3,,,,,,,,,,,,,,,,,,,,,,,,,,,,,,,,,,,,,,,,,,,,,,,,2696.1045486000367,2715.620499700075,None,, oblige,"['o', 'b', 'l', 'i', 'g', 'e', 'return']","[0.2814434999600053, 0.4251674998085946, 0.49672739999368787, 0.6568700999487191, 0.7688237999100238, 0.8411377999000251, 0.9528447999618948]",,,,,,,,,,,17,001,D,2023_Feb_22_1045,student_TT_local,2021.1.4,47.98911223669757,
,None,None,None,None,None,None,None,None,None,None,upkeep,parish,6.5,7.5,video&audio/sentence5_TT_3X.mp4,video&audio/gullet_TT_3X.mp4,picket,gullet,None,,,,,,,,,,,,,,,,,,,,,,,,,,,,,,,,,,,,,,,,,,,0,14,14,28,,,,,,,,,,,,,,,,,,,,,,,,,,,,,,,,,,,,,,,,,,,,,,,,2717.6029419999104,2724.1193933000322,None,, parish,"['p', 'a', 'r', 'i', 's', 'h', 'return']","[0.25585770001634955, 0.33588619995862246, 0.4000043000560254, 0.49589220015332103, 0.6400322001427412, 0.6878536001313478, 0.9201156999915838]",,,,,,,,,,,17,001,D,2023_Feb_22_1045,student_TT_local,2021.1.4,47.98911223669757,
,None,None,None,None,None,None,None,None,None,None,critic,binder,19.5,20.5,video&audio/Sentence1_touch_edited.mp4,video&audio/tamper_touch_edited.mp4,confer,tamper,None,,,,,,,,,,,,,,,,,,,,,,,,,,,,,,,,,,,,,,,,,,,0,15,15,12,,,,,,,,,,,,,,,,,,,,,,,,,,,,,,,,,,,,,,,,,,,,,,,,2726.0820148999337,2745.5962849000935,None,, binder,"['b', 'i', 'n', 'd', 'e', 'r', 'return']","[0.4498870999086648, 0.5219240998849273, 0.6821163999848068, 0.7698464000131935, 0.922463099937886, 1.009970000013709, 1.1299866999033839]",,,,,,,,,,,17,001,D,2023_Feb_22_1045,student_TT_local,2021.1.4,47.98911223669757,
,None,None,None,None,None,None,None,None,None,None,coerce,clergy,6.5,7.5,video&audio/sentence6_TT_3X.mp4,video&audio/portal_TT_3X.mp4,ritual,portal,None,,,,,,,,,,,,,,,,,,,,,,,,,,,,,,,,,,,,,,,,,,,0,16,16,17,,,,,,,,,,,,,,,,,,,,,,,,,,,,,,,,,,,,,,,,,,,,,,,,2747.766328400001,2754.2826157999225,None,, clergy,"['c', 'l', 'e', 'r', 'g', 'y', 'return']","[0.22861230000853539, 0.3086111999582499, 0.44440339994616807, 0.4927479999605566, 0.6770077999681234, 0.9084541001357138, 1.0288341001141816]",,,,,,,,,,,17,001,D,2023_Feb_22_1045,student_TT_local,2021.1.4,47.98911223669757,
,None,None,None,None,None,None,None,None,None,None,fodder,trench,6.5,7.5,video&audio/sentence4_TT_3X.mp4,video&audio/ethnic_TT_3X.mp4,botany,ethnic,None,,,,,,,,,,,,,,,,,,,,,,,,,,,,,,,,,,,,,,,,,,,0,17,17,27,,,,,,,,,,,,,,,,,,,,,,,,,,,,,,,,,,,,,,,,,,,,,,,,2756.3484585999977,2762.8648975999095,None,, trench,"['t', 'r', 'n', 'e', 'backspace', 'backspace', 'e', 'n', 'c', 'h', 'return']","[0.2597932000644505, 0.3156089000403881, 0.43554780003614724, 0.5397472002077848, 0.9637740000616759, 1.0995812001638114, 1.1398967001587152, 1.3078244000207633, 1.4196347000543028, 1.5078313001431525, 1.7241165000014007]",,,,,,,,,,,17,001,D,2023_Feb_22_1045,student_TT_local,2021.1.4,47.98911223669757,
,"While you watch the video, imagine yourself typing the word on the screen, like how you did in the imagery practice. While you watch the video and imagine this, rest your hands on your keyboard but DO NOT type until AFTER you see the typing prompt.

Press 'enter/return' to go to the next page.","While watching the video, imagine yourself typing the word on the screen, like how you did in the imagery practice. While you watch the video and imagine this, rest your hands on your keyboard but DO NOT type until AFTER you see the typing prompt.

Press 'enter/return' to go to the next page.",video&audio/Example_AOMI_imagine.png,1.6,1,butter,6.5,7.5,video&audio/amount_TT_3X.mp4,video&audio/butter_TT_3X.mp4,plight,metric,19.5,20.5,video&audio/Sentence2_touch_edited.mp4,video&audio/eatery_touch_edited.mp4,ascend,eatery,2 = AOMIspec,,,,,,,,,,,,,,,,,,,,,,,,,,,,,,,,,,,,,,,,,,,0,18,18,1,,,,,,,,,,,,,,,,,,,,,,,,,,,,,,,,,,,,,,,,,,,,,,,,2765.6182391999755,2785.133174000075,None,, metric,"['m', 'e', 't', 'r', 'i', 'c', 'return']","[0.538003700086847, 0.6095918999053538, 0.7936078999191523, 0.8738222999963909, 0.9460660999175161, 1.097786699887365, 1.2336794999428093]",,,,,,,,,,,17,001,D,2023_Feb_22_1045,student_TT_local,2021.1.4,47.98911223669757,
,None,None,None,None,None,None,None,None,None,None,quarry,septic,19.5,20.5,video&audio/Sentence2_touch_edited.mp4,video&audio/innate_touch_edited.mp4,neural,innate,None,,,,,,,,,,,,,,,,,,,,,,,,,,,,,,,,,,,,,,,,,,,0,19,19,13,,,,,,,,,,,,,,,,,,,,,,,,,,,,,,,,,,,,,,,,,,,,,,,,2787.407783600036,2806.922441399889,None,, septic,"['s', 'e', 'p', 't', 'i', 'c', 'return']","[0.2687493001576513, 0.46881710016168654, 0.5094194000121206, 0.900497900089249, 1.0525383001659065, 1.188748100074008, 1.3248907001689076]",,,,,,,,,,,17,001,D,2023_Feb_22_1045,student_TT_local,2021.1.4,47.98911223669757,
,None,None,None,None,None,None,None,None,None,None,revolt,joiner,19.5,20.5,video&audio/Sentence6_touch_edited.mp4,video&audio/apathy_touch_edited.mp4,virile,apathy,None,,,,,,,,,,,,,,,,,,,,,,,,,,,,,,,,,,,,,,,,,,,0,20,20,5,,,,,,,,,,,,,,,,,,,,,,,,,,,,,,,,,,,,,,,,,,,,,,,,2928.1625713999383,2947.676960099954,None,, joiner,"['j', 'o', 'i', 'n', 'e', 'r', 'return']","[0.6661815999541432, 0.7857963999267668, 0.9143644999712706, 1.137758299941197, 1.2337780999951065, 1.2981102999765426, 1.4662389000877738]",,,,,,,,,,,17,001,D,2023_Feb_22_1045,student_TT_local,2021.1.4,47.98911223669757,
,None,None,None,None,None,None,None,None,None,None,novice,primal,19.5,20.5,video&audio/Sentence5_touch_edited.mp4,video&audio/entail_touch_edited.mp4,parcel,entail,None,,,,,,,,,,,,,,,,,,,,,,,,,,,,,,,,,,,,,,,,,,,0,21,21,4,,,,,,,,,,,,,,,,,,,,,,,,,,,,,,,,,,,,,,,,,,,,,,,,2950.180640900042,2969.6952378998976,None,, primal,"['p', 'r', 'i', 'm', 'a', 'l', 'return']","[0.3354946000035852, 0.47944830008782446, 0.5514303001109511, 0.7435294000897557, 0.8234651000238955, 0.9515098999254405, 1.1677373999264091]",,,,,,,,,,,17,001,D,2023_Feb_22_1045,student_TT_local,2021.1.4,47.98911223669757,
,None,None,None,None,None,None,None,None,None,None,sherry,zephyr,19.5,20.5,video&audio/Sentence5_touch_edited.mp4,video&audio/fusion_touch_edited.mp4,obsess,fusion,None,,,,,,,,,,,,,,,,,,,,,,,,,,,,,,,,,,,,,,,,,,,0,22,22,10,,,,,,,,,,,,,,,,,,,,,,,,,,,,,,,,,,,,,,,,,,,,,,,,2971.9072473999113,2991.4221351000015,None,, zephyr,"['z', 'e', 'p', 'h', 'y', 'r', 'return']","[0.2800608000252396, 0.48003029986284673, 0.5918294999282807, 0.840169999981299, 1.5282709999009967, 1.671919799875468, 2.0880300998687744]",,,,,,,,,,,17,001,D,2023_Feb_22_1045,student_TT_local,2021.1.4,47.98911223669757,
,None,None,None,None,None,None,None,None,None,None,goblet,befall,19.5,20.5,video&audio/Sentence3_touch_edited.mp4,video&audio/ration_touch_edited.mp4,solemn,ration,None,,,,,,,,,,,,,,,,,,,,,,,,,,,,,,,,,,,,,,,,,,,0,23,23,8,,,,,,,,,,,,,,,,,,,,,,,,,,,,,,,,,,,,,,,,,,,,,,,,2994.55036689993,3014.065231200075,None,, befall,"['b', 'e', 'f', 'a', 'l', 'l', 'return']","[0.5493354999925941, 0.6213710000738502, 0.7011186999734491, 0.8769969001878053, 0.949401100166142, 1.0535160000436008, 1.2614250001497567]",,,,,,,,,,,17,001,D,2023_Feb_22_1045,student_TT_local,2021.1.4,47.98911223669757,
,None,None,None,None,None,None,None,None,None,None,convoy,output,6.5,7.5,video&audio/sentence1_TT_3X.mp4,video&audio/uphold_TT_3X.mp4,debtor,uphold,None,,,,,,,,,,,,,,,,,,,,,,,,,,,,,,,,,,,,,,,,,,,0,24,24,18,,,,,,,,,,,,,,,,,,,,,,,,,,,,,,,,,,,,,,,,,,,,,,,,3016.361101699993,3022.8766043998767,None,, output,"['o', 'u', 't', 'p', 'u', 't', 'return']","[0.5212414001580328, 0.7372322001028806, 0.8332799000199884, 0.9693609999958426, 1.169141000136733, 1.2256454001180828, 1.6490486001130193]",,,,,,,,,,,17,001,D,2023_Feb_22_1045,student_TT_local,2021.1.4,47.98911223669757,
,None,None,None,None,None,None,None,None,None,None,savant,induce,6.5,7.5,video&audio/sentence4_TT_3X.mp4,video&audio/mussel_TT_3X.mp4,cortex,mussel,None,,,,,,,,,,,,,,,,,,,,,,,,,,,,,,,,,,,,,,,,,,,0,25,25,21,,,,,,,,,,,,,,,,,,,,,,,,,,,,,,,,,,,,,,,,,,,,,,,,3025.5674691998865,3032.083921799902,None,, induce,"['i', 'n', 'n', 'd', 'backspace', 'backspace', 'd', 'u', 'c', 'e', 'return']","[0.5627764998935163, 0.8588280000258237, 0.9787842999212444, 1.1308432999067008, 1.4033176999073476, 1.5310969999991357, 1.602954400004819, 1.722847199998796, 2.1309849000535905, 2.3310330999083817, 2.4426887000445276]",,,,,,,,,,,17,001,D,2023_Feb_22_1045,student_TT_local,2021.1.4,47.98911223669757,
,None,None,None,None,None,None,None,None,None,None,deduct,jailer,6.5,7.5,video&audio/sentence5_TT_3X.mp4,video&audio/nettle_TT_3X.mp4,plasma,nettle,None,,,,,,,,,,,,,,,,,,,,,,,,,,,,,,,,,,,,,,,,,,,0,26,26,16,,,,,,,,,,,,,,,,,,,,,,,,,,,,,,,,,,,,,,,,,,,,,,,,3035.566719399998,3042.0831738999113,None,, jailer,"['j', 'a', 'i', 'l', 'e', 'r', 'return']","[0.29850780009292066, 0.38630890008062124, 0.6583537000697106, 0.850550000090152, 0.9066710001789033, 0.970236900029704, 1.0588537000585347]",,,,,,,,,,,17,001,D,2023_Feb_22_1045,student_TT_local,2021.1.4,47.98911223669757,
,None,None,None,None,None,None,None,None,None,None,potent,tandem,6.5,7.5,video&audio/sentence4_TT_3X.mp4,video&audio/origin_TT_3X.mp4,falter,origin,None,,,,,,,,,,,,,,,,,,,,,,,,,,,,,,,,,,,,,,,,,,,0,27,27,15,,,,,,,,,,,,,,,,,,,,,,,,,,,,,,,,,,,,,,,,,,,,,,,,3044.1702628999483,3050.686510300031,None,, tandem,"['t', 'a', 'n', 'd', 'e', 'm', 'return']","[0.2954965999815613, 0.4714921999257058, 0.5354489998426288, 0.6554047998506576, 0.7514651999808848, 0.8153842999599874, 1.0234056999906898]",,,,,,,,,,,17,001,D,2023_Feb_22_1045,student_TT_local,2021.1.4,47.98911223669757,
,None,None,None,None,None,None,None,None,None,None,brazen,fungal,6.5,7.5,video&audio/sentence5_TT_3X.mp4,video&audio/mucous_TT_3X.mp4,subtle,mucous,None,,,,,,,,,,,,,,,,,,,,,,,,,,,,,,,,,,,,,,,,,,,0,28,28,22,,,,,,,,,,,,,,,,,,,,,,,,,,,,,,,,,,,,,,,,,,,,,,,,3052.7522603999823,3059.2684035000857,None,, fungal,"['f', 'u', 'n', 'g', 'a', 'l', 'return']","[0.18640380003489554, 0.24239310016855597, 0.458405900048092, 0.5225978000089526, 0.6184571001213044, 0.722353600198403, 0.9224999002180994]",,,,,,,,,,,17,001,D,2023_Feb_22_1045,student_TT_local,2021.1.4,47.98911223669757,
,None,None,None,None,None,None,None,None,None,None,mirage,shrewd,19.5,20.5,video&audio/Sentence1_touch_edited.mp4,video&audio/revoke_touch_edited.mp4,malady,revoke,None,,,,,,,,,,,,,,,,,,,,,,,,,,,,,,,,,,,,,,,,,,,0,29,29,6,,,,,,,,,,,,,,,,,,,,,,,,,,,,,,,,,,,,,,,,,,,,,,,,3061.2283371000085,3080.7452078999486,None,, shrewd,"['s', 'h', 'r', 'e', 'w', 'd', 'return']","[0.20646059978753328, 0.3180400999262929, 0.45405249996110797, 0.5018239999189973, 0.7179268999025226, 0.8860075999982655, 1.0379582999739796]",,,,,,,,,,,17,001,D,2023_Feb_22_1045,student_TT_local,2021.1.4,47.98911223669757,
,,,,,,,,,,,,,,,,,,,,typingRatingScale.png,"How would you rate your typing performance in the previous section?

Press a number on your keyboard according to the rating scale below to give your answer. Your first answer will be accepted.",,,,,,,,,,,,,,,,,,,,,,,,,,,,,,,,,,,,,,,,,,,,,0,0,0,0,,,,,,,,,,,,,,,,,,,,,,,,,,,,,,,,,,,,,,,,,,,,,,,,,,,['3'],[6.981851299991831],,,,,,,,,17,001,D,2023_Feb_22_1045,student_TT_local,2021.1.4,47.98911223669757,
,,,,,,,,,,,,,,,,,,,,imageryCheckScale.png,"In the previous section did you imagine yourself typing?

Press a number on your keyboard according to the rating scale below to give your answer. Your first answer will be accepted.",,,,,,,,,,,,,,,,,,,,,,,,,,,,,,,,,,,,,,,,,,,,,0,1,1,1,,,,,,,,,,,,,,,,,,,,,,,,,,,,,,,,,,,,,,,,,,,,,,,,,,,['1'],[6.4465301998425275],,,,,,,,,17,001,D,2023_Feb_22_1045,student_TT_local,2021.1.4,47.98911223669757,
,None,None,None,None,None,None,None,None,None,None,satire,mangle,6.5,7.5,video&audio/sentence1_TT_3X.mp4,video&audio/warble_TT_3X.mp4,devise,warble,None,,,,,,,,,,,,,,,,,,,,,,,,,,,,,,,,,,,,,,,,,,,,,,,,,,,,,,,,,,,0,0,0,24,,,,,,,,,,,,,,,,,None,"['b', 'u', 't', 't', 'e', 'r', 'return']","[0.364999599987641, 0.5247450999449939, 0.7885968999471515, 0.932622899999842, 1.0765201998874545, 1.156516700051725, 1.2924136000219733]",,,,,,,,,,,,,,,,,,,,,,None,None, warble,"['w', 'a', 'r', 'b', 'v', 'k', 'e', 'backspace', 'backspace', 'l', 'e', 'return']","[0.35383239993825555, 0.4578269999474287, 0.5777179000433534, 0.897614800138399, 0.9140348001383245, 1.3616987999994308, 1.4659804000984877, 1.857592600164935, 1.9936494999565184, 2.19384380010888, 2.2416046999860555, 2.3776380999479443]",,,,17,001,D,2023_Feb_22_1045,student_TT_local,2021.1.4,47.98911223669757,
,None,None,None,None,None,None,None,None,None,None,savant,induce,6.5,7.5,video&audio/sentence4_TT_3X.mp4,video&audio/mussel_TT_3X.mp4,cortex,mussel,None,,,,,,,,,,,,,,,,,,,,,,,,,,,,,,,,,,,,,,,,,,,,,,,,,,,,,,,,,,,0,1,1,21,,,,,,,,,,,,,,,,,None,,,,,,,,,,,,,,,,,,,,,,,,,None, mussel,"['m', 'u', 's', 's', 'e', 'l', 'return']","[0.28425289993174374, 0.5641660999972373, 0.6445114000234753, 0.8361647999845445, 0.9964900999329984, 1.108195299981162, 1.3483627000823617]",,,,17,001,D,2023_Feb_22_1045,student_TT_local,2021.1.4,47.98911223669757,
,None,None,None,None,None,None,None,None,None,None,manure,girdle,6.5,7.5,video&audio/sentence6_TT_3X.mp4,video&audio/linear_TT_3X.mp4,belfry,linear,None,,,,,,,,,,,,,,,,,,,,,,,,,,,,,,,,,,,,,,,,,,,,,,,,,,,,,,,,,,,0,2,2,23,,,,,,,,,,,,,,,,,None,,,,,,,,,,,,,,,,,,,,,,,,,None, linear,"['l', 'i', 'n', 'e', 'a', 'r', 'return']","[0.3038502000272274, 0.5356554999016225, 0.7355935999657959, 0.799859199905768, 0.9036729999352247, 0.9996193998958915, 1.1276436001062393]",,,,17,001,D,2023_Feb_22_1045,student_TT_local,2021.1.4,47.98911223669757,
,None,None,None,None,None,None,None,None,None,None,critic,binder,19.5,20.5,video&audio/Sentence1_touch_edited.mp4,video&audio/tamper_touch_edited.mp4,confer,tamper,None,,,,,,,,,,,,,,,,,,,,,,,,,,,,,,,,,,,,,,,,,,,,,,,,,,,,,,,,,,,0,3,3,12,,,,,,,,,,,,,,,,,None,,,,,,,,,,,,,,,,,,,,,,,,,None, tamper,"['t', 'a', 'k', 'p', '0', 'backspace', 'backspace', 'm', 'e', 'backspace', 'p', 'e', 'r', 'return']","[0.5080118000041693, 0.7397686999756843, 0.8355499999597669, 1.1235791000071913, 1.139532099943608, 1.4836001999210566, 1.6274470000062138, 1.8918470998760313, 2.187875999836251, 2.4595512999221683, 2.859973599901423, 3.0755559999961406, 3.155452699866146, 3.259445399977267]",,,,17,001,D,2023_Feb_22_1045,student_TT_local,2021.1.4,47.98911223669757,
,None,None,None,None,None,None,None,None,None,None,impose,feudal,6.5,7.5,video&audio/sentence3_TT_3X.mp4,video&audio/matron_TT_3X.mp4,subdue,matron,None,,,,,,,,,,,,,,,,,,,,,,,,,,,,,,,,,,,,,,,,,,,,,,,,,,,,,,,,,,,0,4,4,26,,,,,,,,,,,,,,,,,None,,,,,,,,,,,,,,,,,,,,,,,,,None, matron,"['m', 'a', 't', 'r', 'o', 'n', 'return']","[0.3895386001095176, 0.4697676000650972, 0.6776702001225203, 0.7976985001005232, 0.8535394999198616, 1.0456711000297219, 1.4215790000744164]",,,,17,001,D,2023_Feb_22_1045,student_TT_local,2021.1.4,47.98911223669757,
,None,None,None,None,None,None,None,None,None,None,ordain,patent,19.5,20.5,video&audio/Sentence6_touch_edited.mp4,video&audio/defame_touch_edited.mp4,covert,defame,None,,,,,,,,,,,,,,,,,,,,,,,,,,,,,,,,,,,,,,,,,,,,,,,,,,,,,,,,,,,0,5,5,11,,,,,,,,,,,,,,,,,None,,,,,,,,,,,,,,,,,,,,,,,,,None, defame,"['d', 'e', 'f', 'a', 'm', 'e', 'return']","[0.3642135998234153, 0.4524196998681873, 0.6360551998950541, 0.8282776998821646, 0.9564427000004798, 1.0601040998008102, 1.2200368999037892]",,,,17,001,D,2023_Feb_22_1045,student_TT_local,2021.1.4,47.98911223669757,
,None,None,None,None,None,None,None,None,None,None,quarry,septic,19.5,20.5,video&audio/Sentence2_touch_edited.mp4,video&audio/innate_touch_edited.mp4,neural,innate,None,,,,,,,,,,,,,,,,,,,,,,,,,,,,,,,,,,,,,,,,,,,,,,,,,,,,,,,,,,,0,6,6,13,,,,,,,,,,,,,,,,,None,,,,,,,,,,,,,,,,,,,,,,,,,None, innater,"['i', 'n', 'n', 'a', 't', 'e', 'r', 'return']","[0.40143719990737736, 0.6973457999993116, 0.8574560999404639, 0.9692376998718828, 1.137368799885735, 1.241482799872756, 1.249279199866578, 1.3772594998590648]",,,,17,001,D,2023_Feb_22_1045,student_TT_local,2021.1.4,47.98911223669757,
,None,None,None,None,None,None,None,None,None,None,mirage,shrewd,19.5,20.5,video&audio/Sentence1_touch_edited.mp4,video&audio/revoke_touch_edited.mp4,malady,revoke,None,,,,,,,,,,,,,,,,,,,,,,,,,,,,,,,,,,,,,,,,,,,,,,,,,,,,,,,,,,,0,7,7,6,,,,,,,,,,,,,,,,,None,,,,,,,,,,,,,,,,,,,,,,,,,['backspace'], revoke,"['r', 'e', 'v', 'o', 'k', 'e', 'return']","[0.3791620999109, 0.475184400100261, 0.7231421999167651, 0.8192893001250923, 0.9632212999276817, 1.0914759000297636, 1.3633200000040233]",[0.1538005000911653],,,17,001,D,2023_Feb_22_1045,student_TT_local,2021.1.4,47.98911223669757,
,"Remember to type as QUICKLY and ACCURATELY as possible after the 'get ready' prompt.

Ask the experimenter any questions now. Please put on the headphones.

You will get one practice trial. Press 'enter/return' when you are ready to start the practice.","Remember to type as QUICKLY and ACCURATELY as you can after the 'get ready' prompt.

Ask the experimenter any questions now. Please put on the headphones.

You will get one practice trial. Press 'enter/return' when you are ready to start the practice.",video&audio/Example_AOMI_total.png,1.8,0.7,None,None,None,None,None,jargon,oppose,19.5,20.5,video&audio/Sentence3_touch_edited.mp4,video&audio/ghetto_touch_edited.mp4,frugal,ghetto,None,,,,,,,,,,,,,,,,,,,,,,,,,,,,,,,,,,,,,,,,,,,,,,,,,,,,,,,,,,,0,8,8,2,,,,,,,,,,,,,,,,,None,,,,,,,,,,,,,,,,,,,,,,,,,None, ghetto,"['g', 'h', 'e', 't', 't', 'o', 'return']","[0.3456774998921901, 0.48156400001607835, 0.6419191998429596, 0.7696326998993754, 0.9615905999671668, 1.041865199804306, 1.394162599928677]",,,,17,001,D,2023_Feb_22_1045,student_TT_local,2021.1.4,47.98911223669757,
,None,None,None,None,None,None,None,None,None,None,novice,primal,19.5,20.5,video&audio/Sentence5_touch_edited.mp4,video&audio/entail_touch_edited.mp4,parcel,entail,None,,,,,,,,,,,,,,,,,,,,,,,,,,,,,,,,,,,,,,,,,,,,,,,,,,,,,,,,,,,0,9,9,4,,,,,,,,,,,,,,,,,None,,,,,,,,,,,,,,,,,,,,,,,,,None, entail,"['e', 'n', 't', 'a', 'i', 'l', 'return']","[0.44736460014246404, 0.647383000003174, 0.831512900069356, 1.023516100132838, 1.08737160009332, 1.3116618001367897, 1.487445699982345]",,,,17,001,D,2023_Feb_22_1045,student_TT_local,2021.1.4,47.98911223669757,
,"This is Section 2.

In this section, your task will be the same as before - that is, to type the word you see on the screen AFTER the typing prompt. However, rather than just seeing the word before typing, you will also see a video of someone typing different words to what you will need to type at different speeds. 

Press 'enter/return' to go to the next page.","This is Section 4. 

In this section, your task will be the same as before - that is, to type the word you see on the screen after the typing prompt. You will see a video again, like in Section 2, only this time, the video will show someone the same word that you must type at different speeds. 

Press 'enter/return' to go to the next page.",video&audio/Example_AOMI_layout.png,1.6,0.6,afford,19.5,20.5,video&audio/amount_touch_edited.mp4,video&audio/afford_touch_edited.mp4,vanity,hinder,19.5,20.5,video&audio/Sentence1_touch_edited.mp4,video&audio/breach_touch_edited.mp4,matrix,breach,1 = AOMIgen,,,,,,,,,,,,,,,,,,,,,,,,,,,,,,,,,,,,,,,,,,,,,,,,,,,,,,,,,,,0,10,10,0,,,,,,,,,,,,,,,,,None,,,,,,,,,,,,,,,,,,,,,,,,,None, breach,"['b', 'r', 'e', 'a', 'c', 'h', 'return']","[0.3699103998951614, 0.481597000034526, 0.5699441998731345, 0.7057062999811023, 0.8576593999750912, 0.9616322000510991, 1.3136440999805927]",,,,17,001,D,2023_Feb_22_1045,student_TT_local,2021.1.4,47.98911223669757,
,None,None,None,None,None,None,None,None,None,None,upkeep,parish,6.5,7.5,video&audio/sentence5_TT_3X.mp4,video&audio/gullet_TT_3X.mp4,picket,gullet,None,,,,,,,,,,,,,,,,,,,,,,,,,,,,,,,,,,,,,,,,,,,,,,,,,,,,,,,,,,,0,11,11,28,,,,,,,,,,,,,,,,,None,,,,,,,,,,,,,,,,,,,,,,,,,None, gullet,"['g', 'u', 'l', 'l', 'e', 't', 'return']","[0.42091790004633367, 0.5008551999926567, 0.7330136001110077, 0.8531671999953687, 0.9729538999963552, 1.0212497001048177, 1.2054759999737144]",,,,17,001,D,2023_Feb_22_1045,student_TT_local,2021.1.4,47.98911223669757,
,None,None,None,None,None,None,None,None,None,None,coerce,clergy,6.5,7.5,video&audio/sentence6_TT_3X.mp4,video&audio/portal_TT_3X.mp4,ritual,portal,None,,,,,,,,,,,,,,,,,,,,,,,,,,,,,,,,,,,,,,,,,,,,,,,,,,,,,,,,,,,0,12,12,17,,,,,,,,,,,,,,,,,None,,,,,,,,,,,,,,,,,,,,,,,,,None, portal,"['p', 'o', 'r', 't', 'a', 'l', 'return']","[0.3443200998008251, 0.42407760000787675, 0.519979199860245, 0.543887399835512, 0.7842558999545872, 0.8559274999424815, 1.088532199850306]",,,,17,001,D,2023_Feb_22_1045,student_TT_local,2021.1.4,47.98911223669757,
,None,None,None,None,None,None,None,None,None,None,legion,campus,6.5,7.5,video&audio/sentence6_TT_3X.mp4,video&audio/allure_TT_3X.mp4,forage,allure,None,,,,,,,,,,,,,,,,,,,,,,,,,,,,,,,,,,,,,,,,,,,,,,,,,,,,,,,,,,,0,13,13,29,,,,,,,,,,,,,,,,,None,,,,,,,,,,,,,,,,,,,,,,,,,None, allure,"['a', 'l', 'u', 'r', 'e', 'return']","[0.2857706001959741, 0.5010801001917571, 0.7734682001173496, 0.8694510001223534, 0.9494426001328975, 1.1738089001737535]",,,,17,001,D,2023_Feb_22_1045,student_TT_local,2021.1.4,47.98911223669757,
,None,None,None,None,None,None,None,None,None,None,strife,delude,19.5,20.5,video&audio/Sentence2_touch_edited.mp4,video&audio/galley_touch_edited.mp4,tariff,galley,None,,,,,,,,,,,,,,,,,,,,,,,,,,,,,,,,,,,,,,,,,,,,,,,,,,,,,,,,,,,0,14,14,7,,,,,,,,,,,,,,,,,None,,,,,,,,,,,,,,,,,,,,,,,,,None, galleu,"['g', 'a', 'l', 'l', 'e', 'u', 'return']","[0.2984355001244694, 0.3544065000023693, 0.5302460000384599, 0.6745567000471056, 0.7385863000527024, 0.9782525000628084, 1.2743355999700725]",,,,17,001,D,2023_Feb_22_1045,student_TT_local,2021.1.4,47.98911223669757,
,None,None,None,None,None,None,None,None,None,None,brazen,fungal,6.5,7.5,video&audio/sentence5_TT_3X.mp4,video&audio/mucous_TT_3X.mp4,subtle,mucous,None,,,,,,,,,,,,,,,,,,,,,,,,,,,,,,,,,,,,,,,,,,,,,,,,,,,,,,,,,,,0,15,15,22,,,,,,,,,,,,,,,,,None,,,,,,,,,,,,,,,,,,,,,,,,,None, mucous,"['m', 'u', 'c', 'o', 'u', 's', 'return']","[0.552196100121364, 0.8561829999089241, 0.9447143001016229, 1.1125199000816792, 1.2882107999175787, 1.5442000001203269, 1.784224099945277]",,,,17,001,D,2023_Feb_22_1045,student_TT_local,2021.1.4,47.98911223669757,
,None,None,None,None,None,None,None,None,None,None,fodder,trench,6.5,7.5,video&audio/sentence4_TT_3X.mp4,video&audio/ethnic_TT_3X.mp4,botany,ethnic,None,,,,,,,,,,,,,,,,,,,,,,,,,,,,,,,,,,,,,,,,,,,,,,,,,,,,,,,,,,,0,16,16,27,,,,,,,,,,,,,,,,,None,,,,,,,,,,,,,,,,,,,,,,,,,None, ethnic,"['e', 't', 'h', 'n', 'i', 'c', 'return']","[0.32163839996792376, 0.3776556998491287, 0.4896434999536723, 0.68968589999713, 0.9055934997741133, 0.9696270998101681, 1.353718200000003]",,,,17,001,D,2023_Feb_22_1045,student_TT_local,2021.1.4,47.98911223669757,
,None,None,None,None,None,None,None,None,None,None,potent,tandem,6.5,7.5,video&audio/sentence4_TT_3X.mp4,video&audio/origin_TT_3X.mp4,falter,origin,None,,,,,,,,,,,,,,,,,,,,,,,,,,,,,,,,,,,,,,,,,,,,,,,,,,,,,,,,,,,0,17,17,15,,,,,,,,,,,,,,,,,None,,,,,,,,,,,,,,,,,,,,,,,,,None, origin,"['o', 'r', 'i', 'g', 'i', 'n', 'return']","[0.2913947000633925, 0.387515899958089, 0.5472043000627309, 0.675531999906525, 0.771172899985686, 0.9712694000918418, 1.2996901001315564]",,,,17,001,D,2023_Feb_22_1045,student_TT_local,2021.1.4,47.98911223669757,
,None,None,None,None,None,None,None,None,None,None,convoy,output,6.5,7.5,video&audio/sentence1_TT_3X.mp4,video&audio/uphold_TT_3X.mp4,debtor,uphold,None,,,,,,,,,,,,,,,,,,,,,,,,,,,,,,,,,,,,,,,,,,,,,,,,,,,,,,,,,,,0,18,18,18,,,,,,,,,,,,,,,,,None,,,,,,,,,,,,,,,,,,,,,,,,,None, uphold,"['u', 'p', 'h', 'o', 'l', 'd', 'return']","[0.32801289996132255, 0.4799476999323815, 1.4161084999796003, 1.6080189999192953, 1.7759843999519944, 1.848079999908805, 2.0086317998357117]",,,,17,001,D,2023_Feb_22_1045,student_TT_local,2021.1.4,47.98911223669757,
,None,None,None,None,None,None,None,None,None,None,infirm,oblige,19.5,20.5,video&audio/Sentence4_touch_edited.mp4,video&audio/mystic_touch_edited.mp4,pulpit,mystic,None,,,,,,,,,,,,,,,,,,,,,,,,,,,,,,,,,,,,,,,,,,,,,,,,,,,,,,,,,,,0,19,19,3,,,,,,,,,,,,,,,,,None,,,,,,,,,,,,,,,,,,,,,,,,,None, mystic,"['m', 'y', 's', 'i', 'backspace', 't', 'i', 'c', 'return']","[0.3729111000429839, 0.6446438999846578, 0.8046504000667483, 1.01262650010176, 1.3088899999856949, 1.3806146001443267, 1.5329122000839561, 1.6685870999936014, 1.9006479000672698]",,,,17,001,D,2023_Feb_22_1045,student_TT_local,2021.1.4,47.98911223669757,
,None,None,None,None,None,None,None,None,None,None,goblet,befall,19.5,20.5,video&audio/Sentence3_touch_edited.mp4,video&audio/ration_touch_edited.mp4,solemn,ration,None,,,,,,,,,,,,,,,,,,,,,,,,,,,,,,,,,,,,,,,,,,,,,,,,,,,,,,,,,,,0,20,20,8,,,,,,,,,,,,,,,,,None,,,,,,,,,,,,,,,,,,,,,,,,,None, ration,"['r', 'a', 't', 'i', 'o', 'n', 'n', 'backspace', 'return']","[0.44952709996141493, 0.5059291999787092, 0.7133390998933464, 0.817023599985987, 0.9452938998583704, 1.2731152998749167, 1.3371061000507325, 1.8652772998902947, 2.225447200005874]",,,,17,001,D,2023_Feb_22_1045,student_TT_local,2021.1.4,47.98911223669757,
,None,None,None,None,None,None,None,None,None,None,sherry,zephyr,19.5,20.5,video&audio/Sentence5_touch_edited.mp4,video&audio/fusion_touch_edited.mp4,obsess,fusion,None,,,,,,,,,,,,,,,,,,,,,,,,,,,,,,,,,,,,,,,,,,,,,,,,,,,,,,,,,,,0,21,21,10,,,,,,,,,,,,,,,,,None,,,,,,,,,,,,,,,,,,,,,,,,,None, fusion,"['f', 'u', 's', 'i', 'o', 'n', 'return']","[0.5351468999870121, 0.6792336998041719, 0.8072180999442935, 0.9037841998506337, 1.0872059999965131, 1.28738379990682, 1.5432259999215603]",,,,17,001,D,2023_Feb_22_1045,student_TT_local,2021.1.4,47.98911223669757,
,None,None,None,None,None,None,None,None,None,None,parole,hamlet,19.5,20.5,video&audio/Sentence4_touch_edited.mp4,video&audio/shroud_touch_edited.mp4,jackal,shroud,None,,,,,,,,,,,,,,,,,,,,,,,,,,,,,,,,,,,,,,,,,,,,,,,,,,,,,,,,,,,0,22,22,9,,,,,,,,,,,,,,,,,None,,,,,,,,,,,,,,,,,,,,,,,,,None, shroud,"['s', 'h', 'r', 'o', 'u', 'd', 'return']","[0.41571199987083673, 0.5115449000149965, 0.7358696998562664, 0.8632379998452961, 1.0635003000497818, 1.1595254999119788, 1.4312925999984145]",,,,17,001,D,2023_Feb_22_1045,student_TT_local,2021.1.4,47.98911223669757,
,None,None,None,None,None,None,None,None,None,None,murmur,cobble,6.5,7.5,video&audio/sentence2_TT_3X.mp4,video&audio/export_TT_3X.mp4,cervix,export,None,,,,,,,,,,,,,,,,,,,,,,,,,,,,,,,,,,,,,,,,,,,,,,,,,,,,,,,,,,,0,23,23,19,,,,,,,,,,,,,,,,,None,,,,,,,,,,,,,,,,,,,,,,,,,None, export,"['e', 'x', 'p', 'o', 'r', 't', 'return']","[0.3073569000698626, 0.5552238998934627, 0.6754906999412924, 0.6911454000510275, 1.0993613000027835, 1.1711061999667436, 1.3472523000091314]",,,,17,001,D,2023_Feb_22_1045,student_TT_local,2021.1.4,47.98911223669757,
,None,None,None,None,None,None,None,None,None,None,revolt,joiner,19.5,20.5,video&audio/Sentence6_touch_edited.mp4,video&audio/apathy_touch_edited.mp4,virile,apathy,None,,,,,,,,,,,,,,,,,,,,,,,,,,,,,,,,,,,,,,,,,,,,,,,,,,,,,,,,,,,0,24,24,5,,,,,,,,,,,,,,,,,None,,,,,,,,,,,,,,,,,,,,,,,,,None, apathy,"['a', 'p', 'a', 't', 'h', 'y', 'return']","[0.5301247998140752, 0.6741982998792082, 0.7703177998773754, 0.9783194998744875, 1.0983759998343885, 1.2662745998241007, 1.4661975998897105]",,,,17,001,D,2023_Feb_22_1045,student_TT_local,2021.1.4,47.98911223669757,
,None,None,None,None,None,None,None,None,None,None,sonnet,hearth,19.5,20.5,video&audio/Sentence3_touch_edited.mp4,video&audio/herbal_touch_edited.mp4,hippie,herbal,None,,,,,,,,,,,,,,,,,,,,,,,,,,,,,,,,,,,,,,,,,,,,,,,,,,,,,,,,,,,0,25,25,14,,,,,,,,,,,,,,,,,None,,,,,,,,,,,,,,,,,,,,,,,,,None, herbal,"['h', 'w', 'e', 'b', 'backspace', 'backspace', 'backspace', 'e', 'r', 'b', 'a', 'l', 'return']","[0.3271165997721255, 0.4470913999248296, 0.5194422998465598, 0.6710370997898281, 1.1910640997812152, 1.3353023999370635, 1.4711436999496073, 1.567143299849704, 1.6234742999076843, 1.7993567998055369, 1.9590878998860717, 2.1270820999052376, 2.455392399802804]",,,,17,001,D,2023_Feb_22_1045,student_TT_local,2021.1.4,47.98911223669757,
,"While you watch the video, imagine yourself typing the word on the screen, like how you did in the imagery practice. While you watch the video and imagine this, rest your hands on your keyboard but DO NOT type until AFTER you see the typing prompt.

Press 'enter/return' to go to the next page.","While watching the video, imagine yourself typing the word on the screen, like how you did in the imagery practice. While you watch the video and imagine this, rest your hands on your keyboard but DO NOT type until AFTER you see the typing prompt.

Press 'enter/return' to go to the next page.",video&audio/Example_AOMI_imagine.png,1.6,1,butter,6.5,7.5,video&audio/amount_TT_3X.mp4,video&audio/butter_TT_3X.mp4,plight,metric,19.5,20.5,video&audio/Sentence2_touch_edited.mp4,video&audio/eatery_touch_edited.mp4,ascend,eatery,2 = AOMIspec,,,,,,,,,,,,,,,,,,,,,,,,,,,,,,,,,,,,,,,,,,,,,,,,,,,,,,,,,,,0,26,26,1,,,,,,,,,,,,,,,,,None,,,,,,,,,,,,,,,,,,,,,,,,,None, eatery,"['e', 'a', 't', 'e', 'r', 'y', 'return']","[0.39480469981208444, 0.46671710000373423, 0.9148398998659104, 1.0913185998797417, 1.1627954998984933, 1.8347634999081492, 2.1231076000258327]",,,,17,001,D,2023_Feb_22_1045,student_TT_local,2021.1.4,47.98911223669757,
,None,None,None,None,None,None,None,None,None,None,musket,meddle,6.5,7.5,video&audio/sentence2_TT_3X.mp4,video&audio/divert_TT_3X.mp4,kipper,divert,None,,,,,,,,,,,,,,,,,,,,,,,,,,,,,,,,,,,,,,,,,,,,,,,,,,,,,,,,,,,0,27,27,25,,,,,,,,,,,,,,,,,None,,,,,,,,,,,,,,,,,,,,,,,,,None, divert,"['d', 'i', 'v', 'e', 'r', 't', 'return']","[0.4069443999323994, 0.5107124000787735, 0.630826799897477, 0.7993020999711007, 0.9108235999010503, 1.103467799955979, 1.2155490999575704]",,,,17,001,D,2023_Feb_22_1045,student_TT_local,2021.1.4,47.98911223669757,
,None,None,None,None,None,None,None,None,None,None,deduct,jailer,6.5,7.5,video&audio/sentence5_TT_3X.mp4,video&audio/nettle_TT_3X.mp4,plasma,nettle,None,,,,,,,,,,,,,,,,,,,,,,,,,,,,,,,,,,,,,,,,,,,,,,,,,,,,,,,,,,,0,28,28,16,,,,,,,,,,,,,,,,,None,,,,,,,,,,,,,,,,,,,,,,,,,None, nettle,"['n', 'e', 't', 't', 'l', 'e', 'return']","[0.3069247000385076, 0.41075549996457994, 0.4671390999574214, 0.6669640999753028, 0.7706756999250501, 0.8827996000181884, 1.0988953998312354]",,,,17,001,D,2023_Feb_22_1045,student_TT_local,2021.1.4,47.98911223669757,
,None,None,None,None,None,None,None,None,None,None,pursue,caviar,6.5,7.5,video&audio/sentence3_TT_3X.mp4,video&audio/shrill_TT_3X.mp4,piston,shrill,None,,,,,,,,,,,,,,,,,,,,,,,,,,,,,,,,,,,,,,,,,,,,,,,,,,,,,,,,,,,0,29,29,20,,,,,,,,,,,,,,,,,None,,,,,,,,,,,,,,,,,,,,,,,,,None, shrill,"['s', 'h', 'r', 'i', 'l', 'l', 'return']","[0.3957166001200676, 0.5399976999033242, 0.651912400033325, 0.795826300047338, 1.0197153999470174, 1.1557917001191527, 1.3638218000996858]",,,,17,001,D,2023_Feb_22_1045,student_TT_local,2021.1.4,47.98911223669757,
,,,,,,,,,,,,,,,,,,,,typingRatingScale.png,"How would you rate your typing performance in the previous section?

Press a number on your keyboard according to the rating scale below to give your answer. Your first answer will be accepted.",,,,,,,,,,,,,,,,,,,,,,,,,,,,,,,,,,,,,,,,,,,,,,,,,,,,,,,,,,,,,0,0,0,0,,,,,,,,,,,,,,,,,,,,,,,,,,,,,,,,,,,,,,,,,,,['4'],[3.547869100002572],17,001,D,2023_Feb_22_1045,student_TT_local,2021.1.4,47.98911223669757,
,,,,,,,,,,,,,,,,,,,,visualImageryScale.png,"While imagining yourself typing, how clear was your visual image?

Press a number on your keyboard according to the rating scale below to give your answer. Your first answer will be accepted.",,,,,,,,,,,,,,,,,,,,,,,,,,,,,,,,,,,,,,,,,,,,,,,,,,,,,,,,,,,,,0,1,1,1,,,,,,,,,,,,,,,,,,,,,,,,,,,,,,,,,,,,,,,,,,,['4'],[4.084841599920765],17,001,D,2023_Feb_22_1045,student_TT_local,2021.1.4,47.98911223669757,
,,,,,,,,,,,,,,,,,,,,kinestheticImageryScale.png,"While imagining yourself typing, how intense were the sensations associated with the imagined movement?

Press a number on your keyboard according to the rating scale below to give your answer. Your first answer will be accepted.",,,,,,,,,,,,,,,,,,,,,,,,,,,,,,,,,,,,,,,,,,,,,,,,,,,,,,,,,,,,,0,2,2,2,,,,,,,,,,,,,,,,,,,,,,,,,,,,,,,,,,,,,,,,,,,['4'],[4.473601899808273],17,001,D,2023_Feb_22_1045,student_TT_local,2021.1.4,47.98911223669757,
