pracWords,instr_1,instr_2,AOMI_Ima,AOMI_w,AOMI_h,practiceWords,prac_time,prac_bkgd_time,pracVid_1,pracVid_2,baseline_words,control_words,cont_time,cont_bgkd_time,first_vids,second_vids,AOMIfirst_words,AOMIsecond_words,Order,ratingScale,rateInstr,instructLoop.thisRepN,instructLoop.thisTrialN,instructLoop.thisN,instructLoop.thisIndex,practice_control.thisRepN,practice_control.thisTrialN,practice_control.thisN,practice_control.thisIndex,trials_1.thisRepN,trials_1.thisTrialN,trials_1.thisN,trials_1.thisIndex,baseRateLoop.thisRepN,baseRateLoop.thisTrialN,baseRateLoop.thisN,baseRateLoop.thisIndex,AOMIinstrLoop1.thisRepN,AOMIinstrLoop1.thisTrialN,AOMIinstrLoop1.thisN,AOMIinstrLoop1.thisIndex,AOMIpracLoop.thisRepN,AOMIpracLoop.thisTrialN,AOMIpracLoop.thisN,AOMIpracLoop.thisIndex,trials_2.thisRepN,trials_2.thisTrialN,trials_2.thisN,trials_2.thisIndex,AOMI1rateLoop.thisRepN,AOMI1rateLoop.thisTrialN,AOMI1rateLoop.thisN,AOMI1rateLoop.thisIndex,contInstrLoop.thisRepN,contInstrLoop.thisTrialN,contInstrLoop.thisN,contInstrLoop.thisIndex,contPracLoop.thisRepN,contPracLoop.thisTrialN,contPracLoop.thisN,contPracLoop.thisIndex,trials_3.thisRepN,trials_3.thisTrialN,trials_3.thisN,trials_3.thisIndex,contRateLoop.thisRepN,contRateLoop.thisTrialN,contRateLoop.thisN,contRateLoop.thisIndex,AOMIinstrLoop2.thisRepN,AOMIinstrLoop2.thisTrialN,AOMIinstrLoop2.thisN,AOMIinstrLoop2.thisIndex,AOMIpracLoop2.thisRepN,AOMIpracLoop2.thisTrialN,AOMIpracLoop2.thisN,AOMIpracLoop2.thisIndex,trials_4.thisRepN,trials_4.thisTrialN,trials_4.thisN,trials_4.thisIndex,AOMI2rateLoop.thisRepN,AOMI2rateLoop.thisTrialN,AOMI2rateLoop.thisN,AOMI2rateLoop.thisIndex,pracBkgdKeys.keys,pracBkgdKeys.rt,pracKeys.keys,pracKeys.rt,baseBkgdKeys.keys,base_typedWord,baseKeys.keys,baseKeys.rt,baseBkgdKeys.rt,baseRateTypeKey.keys,baseRateTypeKey.rt,AOMI1_BkgdKeys.keys,AOMI_promptBkgdKeys.keys,AOMI1pracKeys.keys,AOMI1pracKeys.rt,AOMI1bkdgKeys.keys,AOMI1_typedWord,AOMI1keys.keys,AOMI1keys.rt,AOMI_promptBkgdKeys.rt,AOMI1rateTypeKey.keys,AOMI1rateTypeKey.rt,polygon_prac.started,polygon_prac.stopped,contBkgdKeys_prac.keys,contPrac_typedWord,contKeys_prac.keys,contKeys_prac.rt,polygon.started,polygon.stopped,contBkgdKeys.keys,cont_typedWord,contKeys.keys,contKeys.rt,contTypeKey.keys,contTypeKey.rt,bkgdkeys_prac2.keys,bkgdKeys4.keys,AOMI2_typedWord,keyboardCom4.keys,keyboardCom4.rt,AOMI2typeKey.keys,AOMI2typeKey.rt,participant,session,group,date,expName,psychopyVersion,frameRate,
height,,,,,,,,,,,,,,,,,,,,,,,,,,0,0,0,0,,,,,,,,,,,,,,,,,,,,,,,,,,,,,,,,,,,,,,,,,,,,,,,,,,,,,,,,,"['h', 'e', 'i']","[1.3477300000377, 1.5156103998888284, 1.6357807000167668]","['h', 'e', 'i', 'g', 'h', 't', 'return']","[0.7724701999686658, 0.908577400026843, 1.028805899899453, 1.261134000029415, 1.3648957000114024, 1.5406937999650836, 2.261133899912238]",,,,,,,,,,,,,,,,,,,,,,,,,,,,,,,,,,,,,,,,19,001,C,2023_Feb_22_1446,student_TT_local,2021.1.4,47.993257945180645,
update,,,,,,,,,,,,,,,,,,,,,,,,,,0,1,1,2,,,,,,,,,,,,,,,,,,,,,,,,,,,,,,,,,,,,,,,,,,,,,,,,,,,,,,,,,None,,"['u', 'p', 'd', 'a', 't', 'e', 'return']","[0.7507946998812258, 0.9351128998678178, 1.1428439998999238, 1.3745560999959707, 1.6467855998780578, 1.846879999851808, 2.126778499921784]",,,,,,,,,,,,,,,,,,,,,,,,,,,,,,,,,,,,,,,,19,001,C,2023_Feb_22_1446,student_TT_local,2021.1.4,47.993257945180645,
replay,,,,,,,,,,,,,,,,,,,,,,,,,,0,2,2,1,,,,,,,,,,,,,,,,,,,,,,,,,,,,,,,,,,,,,,,,,,,,,,,,,,,,,,,,,None,,"['r', 'e', 'p', 'l', 'a', 'y', 'return']","[0.5146013000048697, 0.6904841000214219, 0.930503600044176, 1.0104477999266237, 1.210506800096482, 1.507162099936977, 2.0105244000442326]",,,,,,,,,,,,,,,,,,,,,,,,,,,,,,,,,,,,,,,,19,001,C,2023_Feb_22_1446,student_TT_local,2021.1.4,47.993257945180645,
,None,None,None,None,None,None,None,None,None,None,defame,covert,19.5,20.5,video&audio/binder_touch_edited.mp4,video&audio/Sentence6_touch_edited.mp4,binder,patent,None,,,,,,,,,,,0,0,0,11,,,,,,,,,,,,,,,,,,,,,,,,,,,,,,,,,,,,,,,,,,,,,,,,,,,,,,,,,None, defame,"['d', 'e', 'f', 'a', 'm', 'e', 'return']","[0.8357593999244273, 0.9788448999170214, 1.1391535999719054, 1.3629224998876452, 1.5629139000084251, 1.731401199940592, 2.0509868999943137]",,,,,,,,,,,,,,,,,,,,,,,,,,,,,,,,,,,,19,001,C,2023_Feb_22_1446,student_TT_local,2021.1.4,47.993257945180645,
,None,None,None,None,None,None,None,None,None,None,origin,falter,6.5,7.5,video&audio/potent_TT_3X.mp4,video&audio/sentence4_TT_3X.mp4,potent,tandem,None,,,,,,,,,,,0,1,1,15,,,,,,,,,,,,,,,,,,,,,,,,,,,,,,,,,,,,,,,,,,,,,,,,,,,,,,,,,None, origin,"['o', 'r', 'i', 'g', 'i', 'n', 'return']","[0.5368588001001626, 0.6808998000342399, 0.8489727999549359, 1.296941400039941, 1.3770735000725836, 1.6733568001072854, 1.9929270001593977]",,,,,,,,,,,,,,,,,,,,,,,,,,,,,,,,,,,,19,001,C,2023_Feb_22_1446,student_TT_local,2021.1.4,47.993257945180645,
,None,None,None,None,None,None,None,None,None,None,ration,solemn,19.5,20.5,video&audio/goblet_touch_edited.mp4,video&audio/Sentence3_touch_edited.mp4,goblet,befall,None,,,,,,,,,,,0,2,2,8,,,,,,,,,,,,,,,,,,,,,,,,,,,,,,,,,,,,,,,,,,,,,,,,,,,,,,,,,None, ration,"['r', 'a', 't', 'i', 'o', 'n', 'return']","[0.66321019991301, 0.8789236000739038, 1.1189564000815153, 1.2151947000529617, 1.382927400059998, 1.479146600002423, 1.839721200056374]",,,,,,,,,,,,,,,,,,,,,,,,,,,,,,,,,,,,19,001,C,2023_Feb_22_1446,student_TT_local,2021.1.4,47.993257945180645,
,None,None,None,None,None,None,None,None,None,None,fusion,obsess,19.5,20.5,video&audio/sherry_touch_edited.mp4,video&audio/Sentence5_touch_edited.mp4,sherry,zephyr,None,,,,,,,,,,,0,3,3,10,,,,,,,,,,,,,,,,,,,,,,,,,,,,,,,,,,,,,,,,,,,,,,,,,,,,,,,,,None, fusion,"['f', 'u', 's', 'i', 'o', 'n', 'return']","[0.7921657999977469, 0.9603299999143928, 1.1281667998991907, 1.2402428998611867, 1.424467399949208, 1.5284372000023723, 1.8081846998538822]",,,,,,,,,,,,,,,,,,,,,,,,,,,,,,,,,,,,19,001,C,2023_Feb_22_1446,student_TT_local,2021.1.4,47.993257945180645,
,None,None,None,None,None,None,None,None,None,None,shroud,jackal,19.5,20.5,video&audio/parole_touch_edited.mp4,video&audio/Sentence4_touch_edited.mp4,parole,hamlet,None,,,,,,,,,,,0,4,4,9,,,,,,,,,,,,,,,,,,,,,,,,,,,,,,,,,,,,,,,,,,,,,,,,,,,,,,,,,None, shroud,"['s', 'h', 'r', 'o', 'u', 'u', 'backspace', 'd', 'return']","[0.6669426998123527, 1.147057899972424, 1.3629885998088866, 1.4749695998616517, 1.7312131999060512, 1.8830155998002738, 2.450993999838829, 2.611696599982679, 2.730894699925557]",,,,,,,,,,,,,,,,,,,,,,,,,,,,,,,,,,,,19,001,C,2023_Feb_22_1446,student_TT_local,2021.1.4,47.993257945180645,
,"This is Section 2.

In this section, your task will be the same as before - that is, to type the word you see on the screen after the typing prompt. However, rather than just seeing the word before typing, you will also see a video of someone typing the same word you will need to type at various speeds. 

Press 'enter/return' to go to the next page.","This is Section 4. 

In this section, your task will be the same as before - that is, to type the word you see on the screen after the typing prompt. You will see a video again, like in Section 2, only this time, the video will show someone typing different words to what you must type at various speeds. 

Press 'enter/return' to go to the next page.",video&audio/Example_AOMI_layout.png,1.6,0.6,afford,19.5,20.5,video&audio/afford_touch_edited.mp4,video&audio/amount_touch_edited.mp4,breach,matrix,19.5,20.5,video&audio/vanity_touch_edited.mp4,video&audio/Sentence1_touch_edited.mp4,vanity,hinder,1 = AOMIspec,,,,,,,,,,,0,5,5,0,,,,,,,,,,,,,,,,,,,,,,,,,,,,,,,,,,,,,,,,,,,,,,,,,,,,,,,,,None, breach,"['b', 'r', 'e', 'a', 'c', 'h', 'return']","[0.586767400149256, 0.7388806999661028, 0.9150894000194967, 1.0751686999574304, 1.2671779000665992, 1.4032610000576824, 1.6589558999985456]",,,,,,,,,,,,,,,,,,,,,,,,,,,,,,,,,,,,19,001,C,2023_Feb_22_1446,student_TT_local,2021.1.4,47.993257945180645,
,"While you watch the video, imagine yourself typing the word on the screen, like how you did in the imagery practice. While you watch the video and imagine this, rest your hands on your keyboard but DO NOT type until AFTER you see the typing prompt.

Press 'enter/return' to go to the next page.","While watching the video, imagine yourself typing the word on the screen, like how you did in the imagery practice. While you watch the video and imagine this, rest your hands on your keyboard but DO NOT type until AFTER you see the typing prompt.

Press 'enter/return' to go to the next page.",video&audio/Example_AOMI_imagine.png,1.6,1,butter,6.5,7.5,video&audio/butter_TT_3X.mp4,video&audio/amount_TT_3X.mp4,eatery,ascend,19.5,20.5,video&audio/plight_touch_edited.mp4,video&audio/Sentence2_touch_edited.mp4,plight,metric,2 = AOMIgen,,,,,,,,,,,0,6,6,1,,,,,,,,,,,,,,,,,,,,,,,,,,,,,,,,,,,,,,,,,,,,,,,,,,,,,,,,,None, eatery,"['e', 'a', 't', 'e', 'r', 'y', 'return']","[0.7764302999712527, 0.9523503999225795, 1.168551999842748, 1.352829199982807, 1.4963165998924524, 1.752315899822861, 1.945148600032553]",,,,,,,,,,,,,,,,,,,,,,,,,,,,,,,,,,,,19,001,C,2023_Feb_22_1446,student_TT_local,2021.1.4,47.993257945180645,
,None,None,None,None,None,None,None,None,None,None,gullet,picket,6.5,7.5,video&audio/upkeep_TT_3X.mp4,video&audio/sentence5_TT_3X.mp4,upkeep,parish,None,,,,,,,,,,,0,7,7,28,,,,,,,,,,,,,,,,,,,,,,,,,,,,,,,,,,,,,,,,,,,,,,,,,,,,,,,,,None, gullet,"['g', 'u', 'l', 'l', 'e', 't', 'return']","[0.7069542999379337, 0.8429719998966902, 1.1149341000709683, 1.2274082000367343, 1.3629510998725891, 1.595014400081709, 1.7871506998781115]",,,,,,,,,,,,,,,,,,,,,,,,,,,,,,,,,,,,19,001,C,2023_Feb_22_1446,student_TT_local,2021.1.4,47.993257945180645,
,None,None,None,None,None,None,None,None,None,None,galley,tariff,19.5,20.5,video&audio/strife_touch_edited.mp4,video&audio/Sentence2_touch_edited.mp4,strife,delude,None,,,,,,,,,,,0,8,8,7,,,,,,,,,,,,,,,,,,,,,,,,,,,,,,,,,,,,,,,,,,,,,,,,,,,,,,,,,None, galley,"['g', 'a', 'l', 'l', 'e', 'u', 'backspace', 'y', 'return']","[0.6448246000800282, 0.869140800088644, 1.0770841999910772, 1.2289674999192357, 1.5649208000395447, 2.149162600049749, 2.7012980000581592, 2.8849510999862105, 3.0530336999800056]",,,,,,,,,,,,,,,,,,,,,,,,,,,,,,,,,,,,19,001,C,2023_Feb_22_1446,student_TT_local,2021.1.4,47.993257945180645,
,None,None,None,None,None,None,None,None,None,None,ethnic,botany,6.5,7.5,video&audio/fodder_TT_3X.mp4,video&audio/sentence4_TT_3X.mp4,fodder,trench,None,,,,,,,,,,,0,9,9,27,,,,,,,,,,,,,,,,,,,,,,,,,,,,,,,,,,,,,,,,,,,,,,,,,,,,,,,,,['e'], ethnic,"['e', 't', 'h', 'n', 'i', 'c', 'return']","[0.5347685001324862, 0.838285000063479, 0.942304200027138, 1.2310552999842912, 1.3584066999610513, 1.6703167001251131, 1.8063714001327753]",[2.9012623000890017],,,,,,,,,,,,,,,,,,,,,,,,,,,,,,,,,,,19,001,C,2023_Feb_22_1446,student_TT_local,2021.1.4,47.993257945180645,
,None,None,None,None,None,None,None,None,None,None,entail,parcel,19.5,20.5,video&audio/novice_touch_edited.mp4,video&audio/Sentence5_touch_edited.mp4,novice,primal,None,,,,,,,,,,,0,10,10,4,,,,,,,,,,,,,,,,,,,,,,,,,,,,,,,,,,,,,,,,,,,,,,,,,,,,,,,,,None, entail,"['e', 'n', 't', 'a', 'i', 'l', 'return']","[0.6651790998876095, 0.8009913999121636, 0.9453775999136269, 1.1608754999469966, 1.2409884000662714, 1.4170303998980671, 1.6650131999049336]",,,,,,,,,,,,,,,,,,,,,,,,,,,,,,,,,,,,19,001,C,2023_Feb_22_1446,student_TT_local,2021.1.4,47.993257945180645,
,None,None,None,None,None,None,None,None,None,None,matron,subdue,6.5,7.5,video&audio/impose_TT_3X.mp4,video&audio/sentence3_TT_3X.mp4,impose,feudal,None,,,,,,,,,,,0,11,11,26,,,,,,,,,,,,,,,,,,,,,,,,,,,,,,,,,,,,,,,,,,,,,,,,,,,,,,,,,None, matron,"['m', 'a', 't', 'r', 'o', 'n', 'return']","[0.8295787998940796, 0.9576439999509603, 1.2215723998378962, 1.3977683999110013, 1.7179183999542147, 1.9335538998711854, 2.2215406999457628]",,,,,,,,,,,,,,,,,,,,,,,,,,,,,,,,,,,,19,001,C,2023_Feb_22_1446,student_TT_local,2021.1.4,47.993257945180645,
,None,None,None,None,None,None,None,None,None,None,divert,kipper,6.5,7.5,video&audio/musket_TT_3X.mp4,video&audio/sentence2_TT_3X.mp4,musket,meddle,None,,,,,,,,,,,0,12,12,25,,,,,,,,,,,,,,,,,,,,,,,,,,,,,,,,,,,,,,,,,,,,,,,,,,,,,,,,,None, divert,"['d', 'i', 'v', 'e', 'r', 't', 'return']","[0.6540008999872953, 0.7261020999867469, 0.8776902998797596, 1.0458396999165416, 1.1817697999067605, 1.3498468999750912, 1.4937605999875814]",,,,,,,,,,,,,,,,,,,,,,,,,,,,,,,,,,,,19,001,C,2023_Feb_22_1446,student_TT_local,2021.1.4,47.993257945180645,
,None,None,None,None,None,None,None,None,None,None,mussel,cortex,6.5,7.5,video&audio/savant_TT_3X.mp4,video&audio/sentence4_TT_3X.mp4,savant,induce,None,,,,,,,,,,,0,13,13,21,,,,,,,,,,,,,,,,,,,,,,,,,,,,,,,,,,,,,,,,,,,,,,,,,,,,,,,,,None, mussel,"['m', 'u', 's', 's', 'e', 'l', 'return']","[0.6422654001507908, 0.8423008001409471, 0.9542561999987811, 1.090537599986419, 1.2584524999838322, 1.3465293999761343, 1.6264967999886721]",,,,,,,,,,,,,,,,,,,,,,,,,,,,,,,,,,,,19,001,C,2023_Feb_22_1446,student_TT_local,2021.1.4,47.993257945180645,
,None,None,None,None,None,None,None,None,None,None,export,cervix,6.5,7.5,video&audio/murmur_TT_3X.mp4,video&audio/sentence2_TT_3X.mp4,murmur,cobble,None,,,,,,,,,,,0,14,14,19,,,,,,,,,,,,,,,,,,,,,,,,,,,,,,,,,,,,,,,,,,,,,,,,,,,,,,,,,None, export,"['e', 'x', 'p', 'o', 'r', 't', 'return']","[0.5391422999091446, 0.7548862998373806, 0.8669584998860955, 1.075001899851486, 1.210820899810642, 1.3631483998615295, 1.5307901999913156]",,,,,,,,,,,,,,,,,,,,,,,,,,,,,,,,,,,,19,001,C,2023_Feb_22_1446,student_TT_local,2021.1.4,47.993257945180645,
,None,None,None,None,None,None,None,None,None,None,linear,belfry,6.5,7.5,video&audio/manure_TT_3X.mp4,video&audio/sentence6_TT_3X.mp4,manure,girdle,None,,,,,,,,,,,0,15,15,23,,,,,,,,,,,,,,,,,,,,,,,,,,,,,,,,,,,,,,,,,,,,,,,,,,,,,,,,,None, linear,"['l', 'i', 'n', 'e', 'a', 'r', 'return']","[0.6376400000881404, 0.862138600088656, 0.9657406001351774, 1.0698544001206756, 1.3737325000111014, 1.5737014999613166, 1.7897391999140382]",,,,,,,,,,,,,,,,,,,,,,,,,,,,,,,,,,,,19,001,C,2023_Feb_22_1446,student_TT_local,2021.1.4,47.993257945180645,
,None,None,None,None,None,None,None,None,None,None,allure,forage,6.5,7.5,video&audio/legion_TT_3X.mp4,video&audio/sentence6_TT_3X.mp4,legion,campus,None,,,,,,,,,,,0,16,16,29,,,,,,,,,,,,,,,,,,,,,,,,,,,,,,,,,,,,,,,,,,,,,,,,,,,,,,,,,None, allure,"['a', 'l', 'l', 'u', 'r', 'e', 'return']","[0.5947640999220312, 0.8267737000714988, 1.0027765000704676, 1.210676999995485, 1.3306980000343174, 1.4750077000353485, 1.6515373999718577]",,,,,,,,,,,,,,,,,,,,,,,,,,,,,,,,,,,,19,001,C,2023_Feb_22_1446,student_TT_local,2021.1.4,47.993257945180645,
,None,None,None,None,None,None,None,None,None,None,tamper,confer,19.5,20.5,video&audio/critic_touch_edited.mp4,video&audio/Sentence1_touch_edited.mp4,critic,innate,None,,,,,,,,,,,0,17,17,12,,,,,,,,,,,,,,,,,,,,,,,,,,,,,,,,,,,,,,,,,,,,,,,,,,,,,,,,,None, tamper,"['t', 'a', 'm', 'p', 'e', 'r', 'return']","[0.47075640014372766, 0.719143700087443, 0.7987967000808567, 0.9586632000282407, 1.0469584001693875, 1.215121100191027, 1.382789900060743]",,,,,,,,,,,,,,,,,,,,,,,,,,,,,,,,,,,,19,001,C,2023_Feb_22_1446,student_TT_local,2021.1.4,47.993257945180645,
,None,None,None,None,None,None,None,None,None,None,mucous,subtle,6.5,7.5,video&audio/brazen_TT_3X.mp4,video&audio/sentence5_TT_3X.mp4,brazen,fungal,None,,,,,,,,,,,0,18,18,22,,,,,,,,,,,,,,,,,,,,,,,,,,,,,,,,,,,,,,,,,,,,,,,,,,,,,,,,,None, mucous,"['m', 'u', 'c', 'o', 'u', 's', 'return']","[1.315699900034815, 1.5079773000907153, 1.6758107000496238, 1.8121450999751687, 2.0118881999514997, 2.3560629000421613, 2.483712499961257]",,,,,,,,,,,,,,,,,,,,,,,,,,,,,,,,,,,,19,001,C,2023_Feb_22_1446,student_TT_local,2021.1.4,47.993257945180645,
,None,None,None,None,None,None,None,None,None,None,ordain,neural,19.5,20.5,video&audio/quarry_touch_edited.mp4,video&audio/Sentence2_touch_edited.mp4,quarry,septic,None,,,,,,,,,,,0,19,19,13,,,,,,,,,,,,,,,,,,,,,,,,,,,,,,,,,,,,,,,,,,,,,,,,,,,,,,,,,None, ordain,"['o', 'r', 'd', 'a', 'i', 'n', 'return']","[0.7987508000805974, 0.8780700000934303, 1.0779464000370353, 1.222016799962148, 1.2939262001309544, 1.382222100161016, 1.6459254000801593]",,,,,,,,,,,,,,,,,,,,,,,,,,,,,,,,,,,,19,001,C,2023_Feb_22_1446,student_TT_local,2021.1.4,47.993257945180645,
,None,None,None,None,None,None,None,None,None,None,warble,devise,6.5,7.5,video&audio/satire_TT_3X.mp4,video&audio/sentence1_TT_3X.mp4,satire,mangle,None,,,,,,,,,,,0,20,20,24,,,,,,,,,,,,,,,,,,,,,,,,,,,,,,,,,,,,,,,,,,,,,,,,,,,,,,,,,None, warble,"['w', 'a', 'r', 'b', 'l', 'e', 'return']","[0.5725952999200672, 0.7571814998518676, 0.9649030000437051, 1.212581800064072, 1.3085675998590887, 1.4365637998562306, 1.6608553000260144]",,,,,,,,,,,,,,,,,,,,,,,,,,,,,,,,,,,,19,001,C,2023_Feb_22_1446,student_TT_local,2021.1.4,47.993257945180645,
,None,None,None,None,None,None,None,None,None,None,mystic,pulpit,19.5,20.5,video&audio/infirm_touch_edited.mp4,video&audio/Sentence4_touch_edited.mp4,infirm,oblige,None,,,,,,,,,,,0,21,21,3,,,,,,,,,,,,,,,,,,,,,,,,,,,,,,,,,,,,,,,,,,,,,,,,,,,,,,,,,None, mystic,"['m', 'y', 's', 't', 'i', 'c', 'return']","[0.6191885999869555, 0.9311610001605004, 1.0754748000763357, 1.3233050999697298, 1.4273692001588643, 1.611521900165826, 1.8672615000978112]",,,,,,,,,,,,,,,,,,,,,,,,,,,,,,,,,,,,19,001,C,2023_Feb_22_1446,student_TT_local,2021.1.4,47.993257945180645,
,"Remember to type as QUICKLY and ACCURATELY as possible after the 'get ready' prompt.

Ask the experimenter any questions now. Please put on the headphones.

You will get one practice trial. Press 'enter/return' when you are ready to start the practice.","Remember to type as QUICKLY and ACCURATELY as you can after the 'get ready' prompt.

Ask the experimenter any questions now. Please put on the headphones.

You will get one practice trial. Press 'enter/return' when you are ready to start the practice.",video&audio/Example_AOMI_total.png,1.8,0.7,None,None,None,None,None,ghetto,frugal,19.5,20.5,video&audio/jargon_touch_edited.mp4,video&audio/Sentence3_touch_edited.mp4,jargon,oppose,None,,,,,,,,,,,0,22,22,2,,,,,,,,,,,,,,,,,,,,,,,,,,,,,,,,,,,,,,,,,,,,,,,,,,,,,,,,,None, ghetto,"['g', 'h', 'e', 't', 't', 'o', 'return']","[0.6849175000097603, 0.7806188999675214, 0.8847735000308603, 1.0686617998871952, 1.2128675000276417, 1.3005729999858886, 1.5725477999076247]",,,,,,,,,,,,,,,,,,,,,,,,,,,,,,,,,,,,19,001,C,2023_Feb_22_1446,student_TT_local,2021.1.4,47.993257945180645,
,None,None,None,None,None,None,None,None,None,None,portal,ritual,6.5,7.5,video&audio/coerce_TT_3X.mp4,video&audio/sentence6_TT_3X.mp4,coerce,clergy,None,,,,,,,,,,,0,23,23,17,,,,,,,,,,,,,,,,,,,,,,,,,,,,,,,,,,,,,,,,,,,,,,,,,,,,,,,,,None, portal,"['p', 'o', 'r', 't', 'a', 'l', 'return']","[0.5232851000037044, 0.7233843000140041, 0.963414000114426, 1.1315454000141472, 1.3554479000158608, 1.4355872001033276, 1.715907200006768]",,,,,,,,,,,,,,,,,,,,,,,,,,,,,,,,,,,,19,001,C,2023_Feb_22_1446,student_TT_local,2021.1.4,47.993257945180645,
,None,None,None,None,None,None,None,None,None,None,nettle,plasma,6.5,7.5,video&audio/deduct_TT_3X.mp4,video&audio/sentence5_TT_3X.mp4,deduct,jailer,None,,,,,,,,,,,0,24,24,16,,,,,,,,,,,,,,,,,,,,,,,,,,,,,,,,,,,,,,,,,,,,,,,,,,,,,,,,,None, nettle,"['n', 'e', 't', 'l', 'e', 'return']","[0.6496774998959154, 0.7697437000460923, 0.9617027000058442, 1.2179576999042183, 1.353784600039944, 1.6257795998826623]",,,,,,,,,,,,,,,,,,,,,,,,,,,,,,,,,,,,19,001,C,2023_Feb_22_1446,student_TT_local,2021.1.4,47.993257945180645,
,None,None,None,None,None,None,None,None,None,None,uphold,debtor,6.5,7.5,video&audio/convoy_TT_3X.mp4,video&audio/sentence1_TT_3X.mp4,convoy,output,None,,,,,,,,,,,0,25,25,18,,,,,,,,,,,,,,,,,,,,,,,,,,,,,,,,,,,,,,,,,,,,,,,,,,,,,,,,,None, uphold,"['u', 'p', 'h', 'o', 'l', 'd', 'return']","[0.7225146000273526, 0.8585350001230836, 1.1065472001209855, 1.2505081000272185, 1.4347353000193834, 1.5707428001333028, 1.7146027002017945]",,,,,,,,,,,,,,,,,,,,,,,,,,,,,,,,,,,,19,001,C,2023_Feb_22_1446,student_TT_local,2021.1.4,47.993257945180645,
,None,None,None,None,None,None,None,None,None,None,shrill,piston,6.5,7.5,video&audio/pursue_TT_3X.mp4,video&audio/sentence3_TT_3X.mp4,pursue,caviar,None,,,,,,,,,,,0,26,26,20,,,,,,,,,,,,,,,,,,,,,,,,,,,,,,,,,,,,,,,,,,,,,,,,,,,,,,,,,None, shrill,"['s', 'h', 'r', 'i', 'l', 'l', 'return']","[0.6712278998456895, 0.8631718000397086, 1.1673790998756886, 1.2632500999607146, 1.455553999869153, 1.5992331998422742, 1.8872442999854684]",,,,,,,,,,,,,,,,,,,,,,,,,,,,,,,,,,,,19,001,C,2023_Feb_22_1446,student_TT_local,2021.1.4,47.993257945180645,
,None,None,None,None,None,None,None,None,None,None,herbal,hippie,19.5,20.5,video&audio/sonnet_touch_edited.mp4,video&audio/Sentence3_touch_edited.mp4,sonnet,hearth,None,,,,,,,,,,,0,27,27,14,,,,,,,,,,,,,,,,,,,,,,,,,,,,,,,,,,,,,,,,,,,,,,,,,,,,,,,,,None, herbal,"['h', 'e', 'r', 'b', 'a', 'l', 'return']","[0.7106719000730664, 0.8146351999603212, 0.9667553999461234, 1.1747136998455971, 1.3426155999768525, 1.438864199910313, 1.7989914999343455]",,,,,,,,,,,,,,,,,,,,,,,,,,,,,,,,,,,,19,001,C,2023_Feb_22_1446,student_TT_local,2021.1.4,47.993257945180645,
,None,None,None,None,None,None,None,None,None,None,revoke,malady,19.5,20.5,video&audio/mirage_touch_edited.mp4,video&audio/Sentence1_touch_edited.mp4,mirage,shrewd,None,,,,,,,,,,,0,28,28,6,,,,,,,,,,,,,,,,,,,,,,,,,,,,,,,,,,,,,,,,,,,,,,,,,,,,,,,,,None, revoke,"['r', 'e', 'v', 'o', 'k', 'e', 'return']","[0.8261408000253141, 0.9541517000179738, 1.1541997999884188, 1.3062115998473018, 1.4026669999584556, 1.522055999841541, 1.7383375000208616]",,,,,,,,,,,,,,,,,,,,,,,,,,,,,,,,,,,,19,001,C,2023_Feb_22_1446,student_TT_local,2021.1.4,47.993257945180645,
,None,None,None,None,None,None,None,None,None,None,apathy,virile,19.5,20.5,video&audio/revolt_touch_edited.mp4,video&audio/Sentence6_touch_edited.mp4,revolt,joiner,None,,,,,,,,,,,0,29,29,5,,,,,,,,,,,,,,,,,,,,,,,,,,,,,,,,,,,,,,,,,,,,,,,,,,,,,,,,,None, apathy,"['a', 'p', 'a', 't', 'h', 'y', 'return']","[0.5628095001447946, 0.6267763001378626, 0.7307254001498222, 0.9388228999450803, 1.0747922000009567, 1.2666687001474202, 1.4509487999603152]",,,,,,,,,,,,,,,,,,,,,,,,,,,,,,,,,,,,19,001,C,2023_Feb_22_1446,student_TT_local,2021.1.4,47.993257945180645,
,,,,,,,,,,,,,,,,,,,,typingRatingScale.png,"How would you rate your typing performance in the previous section?

Press a number on your keyboard according to the rating scale below to give your answer. Your first answer will be accepted.",,,,,,,,,,,,,0,0,0,0,,,,,,,,,,,,,,,,,,,,,,,,,,,,,,,,,,,,,,,,,,,,,,,,,,,,,,,,,,['4'],[12.267390900058672],,,,,,,,,,,,,,,,,,,,,,,,,,,,,,,,,19,001,C,2023_Feb_22_1446,student_TT_local,2021.1.4,47.993257945180645,
,,,,,,,,,,,,,,,,,,,,imageryCheckScale.png,"In the previous section did you imagine yourself typing?

Press a number on your keyboard according to the rating scale below to give your answer. Your first answer will be accepted.",,,,,,,,,,,,,0,1,1,1,,,,,,,,,,,,,,,,,,,,,,,,,,,,,,,,,,,,,,,,,,,,,,,,,,,,,,,,,,['3'],[9.046920499997213],,,,,,,,,,,,,,,,,,,,,,,,,,,,,,,,,19,001,C,2023_Feb_22_1446,student_TT_local,2021.1.4,47.993257945180645,
,None,None,None,None,None,None,None,None,None,None,linear,belfry,6.5,7.5,video&audio/manure_TT_3X.mp4,video&audio/sentence6_TT_3X.mp4,manure,girdle,None,,,,,,,,,,,,,,,,,,,,,,,,,,,0,0,0,23,,,,,,,,,,,,,,,,,,,,,,,,,,,,,,,,,,,,,,,,,,,,,,,,None,None,"['b', 'u', 't', 't', 'e', 'r', 'return']","[0.907080499920994, 1.0192426000721753, 1.1469517000950873, 1.3066378000658005, 1.5076035000383854, 1.6828900999389589, 1.8511810000054538]",None, manure,"['m', 'a', 'n', 'u', 'r', 'e', 'return']","[0.8876008000224829, 1.0472694002091885, 1.1995895002037287, 1.343115600058809, 1.4556690000463277, 1.6471553000155836, 1.9353551000822335]",,,,,,,,,,,,,,,,,,,,,,,,,19,001,C,2023_Feb_22_1446,student_TT_local,2021.1.4,47.993257945180645,
,None,None,None,None,None,None,None,None,None,None,origin,falter,6.5,7.5,video&audio/potent_TT_3X.mp4,video&audio/sentence4_TT_3X.mp4,potent,tandem,None,,,,,,,,,,,,,,,,,,,,,,,,,,,0,1,1,15,,,,,,,,,,,,,,,,,,,,,,,,,,,,,,,,,,,,,,,,,,,,,,,,,None,,,None, potent,"['p', 'o', 't', 'e', 'n', 't', 'return']","[0.4986994999926537, 0.682669899892062, 0.88264079997316, 1.058715600054711, 1.1788502999115735, 1.3949756999500096, 1.6106990999542177]",,,,,,,,,,,,,,,,,,,,,,,,,19,001,C,2023_Feb_22_1446,student_TT_local,2021.1.4,47.993257945180645,
,None,None,None,None,None,None,None,None,None,None,portal,ritual,6.5,7.5,video&audio/coerce_TT_3X.mp4,video&audio/sentence6_TT_3X.mp4,coerce,clergy,None,,,,,,,,,,,,,,,,,,,,,,,,,,,0,2,2,17,,,,,,,,,,,,,,,,,,,,,,,,,,,,,,,,,,,,,,,,,,,,,,,,,None,,,None, coerce,"['c', 'o', 'e', 'r', 'c', 'e', 'return']","[1.1781548999715596, 1.2985745999030769, 1.4901888999156654, 2.3061471998225898, 2.68210419989191, 2.8421105998568237, 3.1144327998626977]",,,,,,,,,,,,,,,,,,,,,,,,,19,001,C,2023_Feb_22_1446,student_TT_local,2021.1.4,47.993257945180645,
,None,None,None,None,None,None,None,None,None,None,revoke,malady,19.5,20.5,video&audio/mirage_touch_edited.mp4,video&audio/Sentence1_touch_edited.mp4,mirage,shrewd,None,,,,,,,,,,,,,,,,,,,,,,,,,,,0,3,3,6,,,,,,,,,,,,,,,,,,,,,,,,,,,,,,,,,,,,,,,,,,,,,,,,,None,,,None, mirage,"['m', 'i', 'r', 'a', 'g', 'e', 'return']","[0.5518252998590469, 0.7913812999613583, 0.9833966998849064, 1.2154204999096692, 1.455761899938807, 1.6394020000007004, 1.9514413999859244]",,,,,,,,,,,,,,,,,,,,,,,,,19,001,C,2023_Feb_22_1446,student_TT_local,2021.1.4,47.993257945180645,
,None,None,None,None,None,None,None,None,None,None,defame,covert,19.5,20.5,video&audio/binder_touch_edited.mp4,video&audio/Sentence6_touch_edited.mp4,binder,patent,None,,,,,,,,,,,,,,,,,,,,,,,,,,,0,4,4,11,,,,,,,,,,,,,,,,,,,,,,,,,,,,,,,,,,,,,,,,,,,,,,,,,None,,,None, binder,"['b', 'i', 'n', 'd', 'e', 'r', 'return']","[0.713398199994117, 0.8096971998456866, 0.9533919000532478, 1.11334879999049, 1.3372797998599708, 1.5612907998729497, 1.7533392999321222]",,,,,,,,,,,,,,,,,,,,,,,,,19,001,C,2023_Feb_22_1446,student_TT_local,2021.1.4,47.993257945180645,
,"While you watch the video, imagine yourself typing the word on the screen, like how you did in the imagery practice. While you watch the video and imagine this, rest your hands on your keyboard but DO NOT type until AFTER you see the typing prompt.

Press 'enter/return' to go to the next page.","While watching the video, imagine yourself typing the word on the screen, like how you did in the imagery practice. While you watch the video and imagine this, rest your hands on your keyboard but DO NOT type until AFTER you see the typing prompt.

Press 'enter/return' to go to the next page.",video&audio/Example_AOMI_imagine.png,1.6,1,butter,6.5,7.5,video&audio/butter_TT_3X.mp4,video&audio/amount_TT_3X.mp4,eatery,ascend,19.5,20.5,video&audio/plight_touch_edited.mp4,video&audio/Sentence2_touch_edited.mp4,plight,metric,2 = AOMIgen,,,,,,,,,,,,,,,,,,,,,,,,,,,0,5,5,1,,,,,,,,,,,,,,,,,,,,,,,,,,,,,,,,,,,,,,,,,,,,,,,,,None,,,None, plight,"['p', 'l', 'i', 'g', 'h', 't', 'return']","[0.5964931000489742, 0.8126256999094039, 1.1083762999624014, 1.3805078999139369, 1.5488739998545498, 1.7803726999554783, 2.060738699976355]",,,,,,,,,,,,,,,,,,,,,,,,,19,001,C,2023_Feb_22_1446,student_TT_local,2021.1.4,47.993257945180645,
,None,None,None,None,None,None,None,None,None,None,entail,parcel,19.5,20.5,video&audio/novice_touch_edited.mp4,video&audio/Sentence5_touch_edited.mp4,novice,primal,None,,,,,,,,,,,,,,,,,,,,,,,,,,,0,6,6,4,,,,,,,,,,,,,,,,,,,,,,,,,,,,,,,,,,,,,,,,,,,,,,,,,None,,,None, novice,"['n', 'o', 'v', 'i', 'c', 'e', 'return']","[0.8141318999696523, 1.0629495000466704, 1.3342492000665516, 1.5103185998741537, 1.686431699898094, 1.838711499935016, 2.174627299886197]",,,,,,,,,,,,,,,,,,,,,,,,,19,001,C,2023_Feb_22_1446,student_TT_local,2021.1.4,47.993257945180645,
,None,None,None,None,None,None,None,None,None,None,warble,devise,6.5,7.5,video&audio/satire_TT_3X.mp4,video&audio/sentence1_TT_3X.mp4,satire,mangle,None,,,,,,,,,,,,,,,,,,,,,,,,,,,0,7,7,24,,,,,,,,,,,,,,,,,,,,,,,,,,,,,,,,,,,,,,,,,,,,,,,,,['s'],,,None,satire,"['a', 't', 'i', 'r', 'e', 'backspace', 'backspace', 'backspace', 'backspace', 'backspace', 'backspace', 's', 'a', 't', 'i', 'r', 'e', 'return']","[0.13428170001134276, 0.4383984999731183, 0.5660520999226719, 0.6948235998861492, 0.9422114999033511, 1.5261653999332339, 2.6144332999829203, 2.8221615999937057, 3.0066197998821735, 3.174236699938774, 3.334401899948716, 3.7825278998352587, 3.926224699942395, 4.166360300034285, 4.398055899888277, 4.470337599981576, 4.678368499968201, 4.846177099971101]",[0.952078300062567],,,,,,,,,,,,,,,,,,,,,,,,19,001,C,2023_Feb_22_1446,student_TT_local,2021.1.4,47.993257945180645,
,None,None,None,None,None,None,None,None,None,None,galley,tariff,19.5,20.5,video&audio/strife_touch_edited.mp4,video&audio/Sentence2_touch_edited.mp4,strife,delude,None,,,,,,,,,,,,,,,,,,,,,,,,,,,0,8,8,7,,,,,,,,,,,,,,,,,,,,,,,,,,,,,,,,,,,,,,,,,,,,,,,,,None,,,None, strife,"['s', 't', 'r', 'f', 'e', 'return']","[0.6546555000822991, 0.9662538000848144, 1.1743920999579132, 1.4942052001133561, 1.638269399991259, 1.862243999959901]",,,,,,,,,,,,,,,,,,,,,,,,,19,001,C,2023_Feb_22_1446,student_TT_local,2021.1.4,47.993257945180645,
,None,None,None,None,None,None,None,None,None,None,ordain,neural,19.5,20.5,video&audio/quarry_touch_edited.mp4,video&audio/Sentence2_touch_edited.mp4,quarry,septic,None,,,,,,,,,,,,,,,,,,,,,,,,,,,0,9,9,13,,,,,,,,,,,,,,,,,,,,,,,,,,,,,,,,,,,,,,,,,,,,,,,,,None,,,None, quarry,"['q', 'u', 'a', 'r', 'r', 'y', 'return']","[0.7900004999246448, 0.9584568000864238, 1.2303418000228703, 1.510039099957794, 1.654382900102064, 1.926075000083074, 2.182232900056988]",,,,,,,,,,,,,,,,,,,,,,,,,19,001,C,2023_Feb_22_1446,student_TT_local,2021.1.4,47.993257945180645,
,None,None,None,None,None,None,None,None,None,None,allure,forage,6.5,7.5,video&audio/legion_TT_3X.mp4,video&audio/sentence6_TT_3X.mp4,legion,campus,None,,,,,,,,,,,,,,,,,,,,,,,,,,,0,10,10,29,,,,,,,,,,,,,,,,,,,,,,,,,,,,,,,,,,,,,,,,,,,,,,,,,None,,,None, legion,"['l', 'e', 'g', 'i', 'o', 'n', 'return']","[0.7582370000891387, 0.92609510011971, 1.1656233000103384, 1.2700926000252366, 1.4216555999591947, 1.5896968999877572, 2.0137209000531584]",,,,,,,,,,,,,,,,,,,,,,,,,19,001,C,2023_Feb_22_1446,student_TT_local,2021.1.4,47.993257945180645,
,None,None,None,None,None,None,None,None,None,None,uphold,debtor,6.5,7.5,video&audio/convoy_TT_3X.mp4,video&audio/sentence1_TT_3X.mp4,convoy,output,None,,,,,,,,,,,,,,,,,,,,,,,,,,,0,11,11,18,,,,,,,,,,,,,,,,,,,,,,,,,,,,,,,,,,,,,,,,,,,,,,,,,None,,,None, convoy,"['c', 'o', 'n', 'v', 'o', 'y', 'return']","[0.9422045999672264, 1.1501854001544416, 1.3341143000870943, 1.766299500130117, 1.8382862000726163, 2.134186499984935, 2.527007000055164]",,,,,,,,,,,,,,,,,,,,,,,,,19,001,C,2023_Feb_22_1446,student_TT_local,2021.1.4,47.993257945180645,
,None,None,None,None,None,None,None,None,None,None,export,cervix,6.5,7.5,video&audio/murmur_TT_3X.mp4,video&audio/sentence2_TT_3X.mp4,murmur,cobble,None,,,,,,,,,,,,,,,,,,,,,,,,,,,0,12,12,19,,,,,,,,,,,,,,,,,,,,,,,,,,,,,,,,,,,,,,,,,,,,,,,,,None,,,None, murmur,"['n', 'u', 'r', 'n', 'u', 'r', 'backspace', 'backspace', 'backspace', 'backspace', 'backspace', 'backspace', 'm', 'u', 'r', 'm', 'u', 'r', 'return']","[0.9377429999876767, 1.1219900001306087, 1.2982620999682695, 1.738046000013128, 1.9296187001746148, 2.137689399998635, 2.7781736000906676, 3.769822500180453, 3.961589500075206, 4.137598300119862, 4.2981084999628365, 4.4656698000617325, 5.1540286999661475, 5.393599900184199, 5.657711800187826, 5.873672500019893, 6.065673200180754, 6.2337816001381725, 6.433904200093821]",,,,,,,,,,,,,,,,,,,,,,,,,19,001,C,2023_Feb_22_1446,student_TT_local,2021.1.4,47.993257945180645,
,None,None,None,None,None,None,None,None,None,None,divert,kipper,6.5,7.5,video&audio/musket_TT_3X.mp4,video&audio/sentence2_TT_3X.mp4,musket,meddle,None,,,,,,,,,,,,,,,,,,,,,,,,,,,0,13,13,25,,,,,,,,,,,,,,,,,,,,,,,,,,,,,,,,,,,,,,,,,,,,,,,,,None,,,None, musket,"['m', 'u', 's', 'k', 'e', 't', 'return']","[0.7176634001079947, 0.9899522999767214, 1.1897477000020444, 1.2858271999284625, 1.4701040999498218, 1.6696759001351893, 1.8458092999644578]",,,,,,,,,,,,,,,,,,,,,,,,,19,001,C,2023_Feb_22_1446,student_TT_local,2021.1.4,47.993257945180645,
,None,None,None,None,None,None,None,None,None,None,ration,solemn,19.5,20.5,video&audio/goblet_touch_edited.mp4,video&audio/Sentence3_touch_edited.mp4,goblet,befall,None,,,,,,,,,,,,,,,,,,,,,,,,,,,0,14,14,8,,,,,,,,,,,,,,,,,,,,,,,,,,,,,,,,,,,,,,,,,,,,,,,,,None,,,None, goblet,"['g', 'o', 'b', 'l', 'e', 't', 'return']","[1.0672955000773072, 1.2193167000077665, 1.4433500999584794, 1.8596328001003712, 2.003365899901837, 2.179429200012237, 2.3551920000463724]",,,,,,,,,,,,,,,,,,,,,,,,,19,001,C,2023_Feb_22_1446,student_TT_local,2021.1.4,47.993257945180645,
,"Remember to type as QUICKLY and ACCURATELY as possible after the 'get ready' prompt.

Ask the experimenter any questions now. Please put on the headphones.

You will get one practice trial. Press 'enter/return' when you are ready to start the practice.","Remember to type as QUICKLY and ACCURATELY as you can after the 'get ready' prompt.

Ask the experimenter any questions now. Please put on the headphones.

You will get one practice trial. Press 'enter/return' when you are ready to start the practice.",video&audio/Example_AOMI_total.png,1.8,0.7,None,None,None,None,None,ghetto,frugal,19.5,20.5,video&audio/jargon_touch_edited.mp4,video&audio/Sentence3_touch_edited.mp4,jargon,oppose,None,,,,,,,,,,,,,,,,,,,,,,,,,,,0,15,15,2,,,,,,,,,,,,,,,,,,,,,,,,,,,,,,,,,,,,,,,,,,,,,,,,,None,,,None, jargon,"['j', 'a', 'r', 'g', 'o', 'n', 'return']","[0.8930411001201719, 1.116674300050363, 1.596854800125584, 1.8612640001811087, 1.9810151001438498, 2.2207957000937313, 2.6533719999715686]",,,,,,,,,,,,,,,,,,,,,,,,,19,001,C,2023_Feb_22_1446,student_TT_local,2021.1.4,47.993257945180645,
,None,None,None,None,None,None,None,None,None,None,gullet,picket,6.5,7.5,video&audio/upkeep_TT_3X.mp4,video&audio/sentence5_TT_3X.mp4,upkeep,parish,None,,,,,,,,,,,,,,,,,,,,,,,,,,,0,16,16,28,,,,,,,,,,,,,,,,,,,,,,,,,,,,,,,,,,,,,,,,,,,,,,,,,None,,,None, upkeep,"['u', 'p', 'k', 'e', 'e', 'p', 'return']","[0.8662632000632584, 1.1464357001241297, 1.4262618001084775, 1.5782326001208276, 1.7142215999774635, 1.850228700088337, 2.1783301001414657]",,,,,,,,,,,,,,,,,,,,,,,,,19,001,C,2023_Feb_22_1446,student_TT_local,2021.1.4,47.993257945180645,
,None,None,None,None,None,None,None,None,None,None,mucous,subtle,6.5,7.5,video&audio/brazen_TT_3X.mp4,video&audio/sentence5_TT_3X.mp4,brazen,fungal,None,,,,,,,,,,,,,,,,,,,,,,,,,,,0,17,17,22,,,,,,,,,,,,,,,,,,,,,,,,,,,,,,,,,,,,,,,,,,,,,,,,,None,,,None, brazen,"['b', 'r', 'a', 'x', 'backspace', 'z', 'e', 'n', 'return']","[1.5504415999166667, 1.6545245999004692, 1.8708921999204904, 2.262622999958694, 2.7025591998826712, 2.870872699888423, 3.262562899850309, 3.3906584999058396, 3.6465316000394523]",,,,,,,,,,,,,,,,,,,,,,,,,19,001,C,2023_Feb_22_1446,student_TT_local,2021.1.4,47.993257945180645,
,None,None,None,None,None,None,None,None,None,None,nettle,plasma,6.5,7.5,video&audio/deduct_TT_3X.mp4,video&audio/sentence5_TT_3X.mp4,deduct,jailer,None,,,,,,,,,,,,,,,,,,,,,,,,,,,0,18,18,16,,,,,,,,,,,,,,,,,,,,,,,,,,,,,,,,,,,,,,,,,,,,,,,,,None,,,None, deduct,"['d', 'e', 'd', 'u', 'c', 't', 'return']","[0.4884426000062376, 0.7925501000136137, 1.0084339999593794, 1.3364113999996334, 1.4726247999351472, 1.6565077998675406, 1.8564015999436378]",,,,,,,,,,,,,,,,,,,,,,,,,19,001,C,2023_Feb_22_1446,student_TT_local,2021.1.4,47.993257945180645,
,"This is Section 2.

In this section, your task will be the same as before - that is, to type the word you see on the screen after the typing prompt. However, rather than just seeing the word before typing, you will also see a video of someone typing the same word you will need to type at various speeds. 

Press 'enter/return' to go to the next page.","This is Section 4. 

In this section, your task will be the same as before - that is, to type the word you see on the screen after the typing prompt. You will see a video again, like in Section 2, only this time, the video will show someone typing different words to what you must type at various speeds. 

Press 'enter/return' to go to the next page.",video&audio/Example_AOMI_layout.png,1.6,0.6,afford,19.5,20.5,video&audio/afford_touch_edited.mp4,video&audio/amount_touch_edited.mp4,breach,matrix,19.5,20.5,video&audio/vanity_touch_edited.mp4,video&audio/Sentence1_touch_edited.mp4,vanity,hinder,1 = AOMIspec,,,,,,,,,,,,,,,,,,,,,,,,,,,0,19,19,0,,,,,,,,,,,,,,,,,,,,,,,,,,,,,,,,,,,,,,,,,,,,,,,,,None,,,None, vanity,"['v', 'a', 'n', 'i', 't', 'y', 'return']","[0.6809169999323785, 0.9607682998757809, 1.1852688998915255, 1.3288934999145567, 1.4653950999490917, 1.6570718998555094, 1.8330978997983038]",,,,,,,,,,,,,,,,,,,,,,,,,19,001,C,2023_Feb_22_1446,student_TT_local,2021.1.4,47.993257945180645,
,None,None,None,None,None,None,None,None,None,None,mystic,pulpit,19.5,20.5,video&audio/infirm_touch_edited.mp4,video&audio/Sentence4_touch_edited.mp4,infirm,oblige,None,,,,,,,,,,,,,,,,,,,,,,,,,,,0,20,20,3,,,,,,,,,,,,,,,,,,,,,,,,,,,,,,,,,,,,,,,,,,,,,,,,,None,,,None, infirm,"['i', 'n', 'f', 'r', 'backspace', 'i', 'r', 'm', 'return']","[0.8517323001287878, 1.003689199918881, 1.2278001001104712, 1.4196321999188513, 1.8436900000087917, 2.203720400109887, 2.4037818999495357, 2.587701499927789, 2.899581100093201]",,,,,,,,,,,,,,,,,,,,,,,,,19,001,C,2023_Feb_22_1446,student_TT_local,2021.1.4,47.993257945180645,
,None,None,None,None,None,None,None,None,None,None,ethnic,botany,6.5,7.5,video&audio/fodder_TT_3X.mp4,video&audio/sentence4_TT_3X.mp4,fodder,trench,None,,,,,,,,,,,,,,,,,,,,,,,,,,,0,21,21,27,,,,,,,,,,,,,,,,,,,,,,,,,,,,,,,,,,,,,,,,,,,,,,,,,None,,,None, fodder,"['f', 'o', 'd', 'd', 'e', 'r', 'return']","[0.7166137997992337, 0.843954699812457, 1.0119787999428809, 1.1640835998114198, 1.3480541999451816, 1.5318977998103946, 1.716413299785927]",,,,,,,,,,,,,,,,,,,,,,,,,19,001,C,2023_Feb_22_1446,student_TT_local,2021.1.4,47.993257945180645,
,None,None,None,None,None,None,None,None,None,None,matron,subdue,6.5,7.5,video&audio/impose_TT_3X.mp4,video&audio/sentence3_TT_3X.mp4,impose,feudal,None,,,,,,,,,,,,,,,,,,,,,,,,,,,0,22,22,26,,,,,,,,,,,,,,,,,,,,,,,,,,,,,,,,,,,,,,,,,,,,,,,,,None,,,None, impose,"['i', 'm', 'p', 'o', 's', 'e', 'return']","[0.7916950997896492, 1.095683499937877, 1.263457699911669, 1.4715472999960184, 1.6157354000024498, 1.8237030999734998, 1.9995061999652535]",,,,,,,,,,,,,,,,,,,,,,,,,19,001,C,2023_Feb_22_1446,student_TT_local,2021.1.4,47.993257945180645,
,None,None,None,None,None,None,None,None,None,None,herbal,hippie,19.5,20.5,video&audio/sonnet_touch_edited.mp4,video&audio/Sentence3_touch_edited.mp4,sonnet,hearth,None,,,,,,,,,,,,,,,,,,,,,,,,,,,0,23,23,14,,,,,,,,,,,,,,,,,,,,,,,,,,,,,,,,,,,,,,,,,,,,,,,,,None,,,None, sonnet,"['s', 'o', 'n', 'n', 'e', 't', 'return']","[0.5905965000856668, 0.7021350001450628, 0.9581085999961942, 1.1023796999361366, 1.2460996001027524, 1.4379358000587672, 1.6380668999627233]",,,,,,,,,,,,,,,,,,,,,,,,,19,001,C,2023_Feb_22_1446,student_TT_local,2021.1.4,47.993257945180645,
,None,None,None,None,None,None,None,None,None,None,fusion,obsess,19.5,20.5,video&audio/sherry_touch_edited.mp4,video&audio/Sentence5_touch_edited.mp4,sherry,zephyr,None,,,,,,,,,,,,,,,,,,,,,,,,,,,0,24,24,10,,,,,,,,,,,,,,,,,,,,,,,,,,,,,,,,,,,,,,,,,,,,,,,,,None,,,None, sherry,"['s', 'h', 'e', 'r', 'r', 'y', 'return']","[0.9306385999079794, 1.114929299801588, 1.314564900007099, 1.5072546999435872, 1.6266265998128802, 1.986908699851483, 2.210576399927959]",,,,,,,,,,,,,,,,,,,,,,,,,19,001,C,2023_Feb_22_1446,student_TT_local,2021.1.4,47.993257945180645,
,None,None,None,None,None,None,None,None,None,None,tamper,confer,19.5,20.5,video&audio/critic_touch_edited.mp4,video&audio/Sentence1_touch_edited.mp4,critic,innate,None,,,,,,,,,,,,,,,,,,,,,,,,,,,0,25,25,12,,,,,,,,,,,,,,,,,,,,,,,,,,,,,,,,,,,,,,,,,,,,,,,,,None,,,None, critic,"['c', 'r', 'i', 't', 'i', 'return']","[0.6435320999007672, 0.9237726998981088, 1.0992899998091161, 1.2356009997893125, 1.3952281998936087, 1.9072925997897983]",,,,,,,,,,,,,,,,,,,,,,,,,19,001,C,2023_Feb_22_1446,student_TT_local,2021.1.4,47.993257945180645,
,None,None,None,None,None,None,None,None,None,None,apathy,virile,19.5,20.5,video&audio/revolt_touch_edited.mp4,video&audio/Sentence6_touch_edited.mp4,revolt,joiner,None,,,,,,,,,,,,,,,,,,,,,,,,,,,0,26,26,5,,,,,,,,,,,,,,,,,,,,,,,,,,,,,,,,,,,,,,,,,,,,,,,,,None,,,None, revolt,"['r', 'e', 'v', 'o', 'l', 't', 'return']","[0.7531238000374287, 0.8974745001178235, 1.1691738001536578, 1.297151600010693, 1.433099300134927, 1.7054288999643177, 1.9210475001018494]",,,,,,,,,,,,,,,,,,,,,,,,,19,001,C,2023_Feb_22_1446,student_TT_local,2021.1.4,47.993257945180645,
,None,None,None,None,None,None,None,None,None,None,shroud,jackal,19.5,20.5,video&audio/parole_touch_edited.mp4,video&audio/Sentence4_touch_edited.mp4,parole,hamlet,None,,,,,,,,,,,,,,,,,,,,,,,,,,,0,27,27,9,,,,,,,,,,,,,,,,,,,,,,,,,,,,,,,,,,,,,,,,,,,,,,,,,None,,,None, parole,"['p', 'a', 'r', 'o', 'l', 'e', 'return']","[1.0217575000133365, 1.2294477000832558, 1.5576059999875724, 1.669450500048697, 1.8376194001175463, 2.061427100095898, 2.3497876001056284]",,,,,,,,,,,,,,,,,,,,,,,,,19,001,C,2023_Feb_22_1446,student_TT_local,2021.1.4,47.993257945180645,
,None,None,None,None,None,None,None,None,None,None,mussel,cortex,6.5,7.5,video&audio/savant_TT_3X.mp4,video&audio/sentence4_TT_3X.mp4,savant,induce,None,,,,,,,,,,,,,,,,,,,,,,,,,,,0,28,28,21,,,,,,,,,,,,,,,,,,,,,,,,,,,,,,,,,,,,,,,,,,,,,,,,,None,,,None, savant,"['s', 'a', 'v', 'a', 'n', 't', 'return']","[0.596572200069204, 0.7326975001487881, 1.0127000999636948, 1.1806801999919116, 1.3087934001814574, 1.5090544000267982, 1.7410944001749158]",,,,,,,,,,,,,,,,,,,,,,,,,19,001,C,2023_Feb_22_1446,student_TT_local,2021.1.4,47.993257945180645,
,None,None,None,None,None,None,None,None,None,None,shrill,piston,6.5,7.5,video&audio/pursue_TT_3X.mp4,video&audio/sentence3_TT_3X.mp4,pursue,caviar,None,,,,,,,,,,,,,,,,,,,,,,,,,,,0,29,29,20,,,,,,,,,,,,,,,,,,,,,,,,,,,,,,,,,,,,,,,,,,,,,,,,,None,,,None, pursue,"['p', 'u', 'r', 's', 'u', 'r', 'backspace', 'e', 'return']","[0.8714840000029653, 1.070952899986878, 1.2789755000267178, 1.5273432999383658, 1.6152202000375837, 1.7909741001203656, 2.1350513000506908, 2.278965000063181, 2.415098400088027]",,,,,,,,,,,,,,,,,,,,,,,,,19,001,C,2023_Feb_22_1446,student_TT_local,2021.1.4,47.993257945180645,
,,,,,,,,,,,,,,,,,,,,typingRatingScale.png,"How would you rate your typing performance in the previous section?

Press a number on your keyboard according to the rating scale below to give your answer. Your first answer will be accepted.",,,,,,,,,,,,,,,,,,,,,,,,,,,,,0,0,0,0,,,,,,,,,,,,,,,,,,,,,,,,,,,,,,,,,,,,,,,,,,,,,,,,,,,,,['3'],[7.208130999933928],,,,,,,,,,,,,,,,,,,,,,19,001,C,2023_Feb_22_1446,student_TT_local,2021.1.4,47.993257945180645,
,,,,,,,,,,,,,,,,,,,,visualImageryScale.png,"While imagining yourself typing, how clear was your visual image?

Press a number on your keyboard according to the rating scale below to give your answer. Your first answer will be accepted.",,,,,,,,,,,,,,,,,,,,,,,,,,,,,0,1,1,1,,,,,,,,,,,,,,,,,,,,,,,,,,,,,,,,,,,,,,,,,,,,,,,,,,,,,['4'],[5.783453100128099],,,,,,,,,,,,,,,,,,,,,,19,001,C,2023_Feb_22_1446,student_TT_local,2021.1.4,47.993257945180645,
,,,,,,,,,,,,,,,,,,,,kinestheticImageryScale.png,"While imagining yourself typing, how intense were the sensations associated with the imagined movement?

Press a number on your keyboard according to the rating scale below to give your answer. Your first answer will be accepted.",,,,,,,,,,,,,,,,,,,,,,,,,,,,,0,2,2,2,,,,,,,,,,,,,,,,,,,,,,,,,,,,,,,,,,,,,,,,,,,,,,,,,,,,,['4'],[5.519568199990317],,,,,,,,,,,,,,,,,,,,,,19,001,C,2023_Feb_22_1446,student_TT_local,2021.1.4,47.993257945180645,
,None,None,None,None,None,None,None,None,None,None,origin,falter,6.5,7.5,video&audio/potent_TT_3X.mp4,video&audio/sentence4_TT_3X.mp4,potent,tandem,None,,,,,,,,,,,,,,,,,,,,,,,,,,,,,,,,,,,,,,,,,,,0,0,0,15,,,,,,,,,,,,,,,,,,,,,,,,,,,,,,,,,,,,,,,,,,,2981.4330452999566,2987.949604799971,None, butter,"['b', 'u', 't', 't', 'e', 'r', 'return']","[0.8162432999815792, 0.9201883999630809, 1.0642021999228746, 1.2082436000928283, 1.3923273999243975, 1.5521446000784636, 1.6883829000871629]",3024.9517675000243,3031.465372199891,None, falter,"['f', 'a', 'l', 't', 'e', 'r', 'return']","[0.6822540001012385, 0.8502086000517011, 1.041905299993232, 1.2098387000150979, 1.401975099928677, 1.5942092000041157, 1.7547291000373662]",,,,,,,,,,19,001,C,2023_Feb_22_1446,student_TT_local,2021.1.4,47.993257945180645,
,None,None,None,None,None,None,None,None,None,None,herbal,hippie,19.5,20.5,video&audio/sonnet_touch_edited.mp4,video&audio/Sentence3_touch_edited.mp4,sonnet,hearth,None,,,,,,,,,,,,,,,,,,,,,,,,,,,,,,,,,,,,,,,,,,,0,1,1,14,,,,,,,,,,,,,,,,,,,,,,,,,,,,,,,,,,,,,,,,,,,,,,,,,3034.259966299869,3053.775380200008,None, hippie,"['h', 'i', 'p', 'p', 'i', 'e', 'return']","[0.7015184999909252, 0.8214902998879552, 1.0539535998832434, 1.2135475999675691, 1.4215372998733073, 1.597576200030744, 1.8297762998845428]",,,,,,,,,,19,001,C,2023_Feb_22_1446,student_TT_local,2021.1.4,47.993257945180645,
,None,None,None,None,None,None,None,None,None,None,fusion,obsess,19.5,20.5,video&audio/sherry_touch_edited.mp4,video&audio/Sentence5_touch_edited.mp4,sherry,zephyr,None,,,,,,,,,,,,,,,,,,,,,,,,,,,,,,,,,,,,,,,,,,,0,2,2,10,,,,,,,,,,,,,,,,,,,,,,,,,,,,,,,,,,,,,,,,,,,,,,,,,3056.632302499842,3076.1478613000363,None, obsess,"['o', 'b', 's', 'e', 's', 's', 'return']","[0.8552739999722689, 1.1917210000101477, 1.471190300071612, 1.6793758000712842, 1.8550996000412852, 2.0071284999139607, 2.2877136000897735]",,,,,,,,,,19,001,C,2023_Feb_22_1446,student_TT_local,2021.1.4,47.993257945180645,
,None,None,None,None,None,None,None,None,None,None,nettle,plasma,6.5,7.5,video&audio/deduct_TT_3X.mp4,video&audio/sentence5_TT_3X.mp4,deduct,jailer,None,,,,,,,,,,,,,,,,,,,,,,,,,,,,,,,,,,,,,,,,,,,0,3,3,16,,,,,,,,,,,,,,,,,,,,,,,,,,,,,,,,,,,,,,,,,,,,,,,,,3079.4633992000017,3085.979970499873,None, plasma,"['p', 'l', 'a', 's', 'm', 'a', 'return']","[0.7926831000950187, 0.896962400060147, 1.0647533000446856, 1.2648197999224067, 1.5447307999711484, 1.6731239999644458, 1.936794999986887]",,,,,,,,,,19,001,C,2023_Feb_22_1446,student_TT_local,2021.1.4,47.993257945180645,
,None,None,None,None,None,None,None,None,None,None,ration,solemn,19.5,20.5,video&audio/goblet_touch_edited.mp4,video&audio/Sentence3_touch_edited.mp4,goblet,befall,None,,,,,,,,,,,,,,,,,,,,,,,,,,,,,,,,,,,,,,,,,,,0,4,4,8,,,,,,,,,,,,,,,,,,,,,,,,,,,,,,,,,,,,,,,,,,,,,,,,,3088.963456999976,3108.4774545999244,None, solemn,"['s', 'o', 'l', 'e', 'm', 'n', 'return']","[0.7821902998257428, 0.8302441998384893, 1.054203099803999, 1.5981133999302983, 1.9582110999617726, 2.174227299867198, 2.5584680000320077]",,,,,,,,,,19,001,C,2023_Feb_22_1446,student_TT_local,2021.1.4,47.993257945180645,
,None,None,None,None,None,None,None,None,None,None,revoke,malady,19.5,20.5,video&audio/mirage_touch_edited.mp4,video&audio/Sentence1_touch_edited.mp4,mirage,shrewd,None,,,,,,,,,,,,,,,,,,,,,,,,,,,,,,,,,,,,,,,,,,,0,5,5,6,,,,,,,,,,,,,,,,,,,,,,,,,,,,,,,,,,,,,,,,,,,,,,,,,3112.064254099969,3131.5788320999127,None, malady,"['m', 'a', 'l', 'a', 'd', 'y', 'return']","[0.7433406999334693, 0.9031638999003917, 1.0629541999660432, 1.2073029999155551, 1.383186399936676, 1.6630112000275403, 1.8951029998715967]",,,,,,,,,,19,001,C,2023_Feb_22_1446,student_TT_local,2021.1.4,47.993257945180645,
,None,None,None,None,None,None,None,None,None,None,divert,kipper,6.5,7.5,video&audio/musket_TT_3X.mp4,video&audio/sentence2_TT_3X.mp4,musket,meddle,None,,,,,,,,,,,,,,,,,,,,,,,,,,,,,,,,,,,,,,,,,,,0,6,6,25,,,,,,,,,,,,,,,,,,,,,,,,,,,,,,,,,,,,,,,,,,,,,,,,,3134.5207082999405,3141.036205600016,None, kipper,"['k', 'i', 'p', 'p', 'e', 'r', 'return']","[0.5612363000400364, 0.7293185999151319, 0.9454548000358045, 1.0892515999730676, 1.2012273001018912, 1.3532879000995308, 1.7213022999931127]",,,,,,,,,,19,001,C,2023_Feb_22_1446,student_TT_local,2021.1.4,47.993257945180645,
,None,None,None,None,None,None,None,None,None,None,portal,ritual,6.5,7.5,video&audio/coerce_TT_3X.mp4,video&audio/sentence6_TT_3X.mp4,coerce,clergy,None,,,,,,,,,,,,,,,,,,,,,,,,,,,,,,,,,,,,,,,,,,,0,7,7,17,,,,,,,,,,,,,,,,,,,,,,,,,,,,,,,,,,,,,,,,,,,,,,,,,3143.789878200041,3150.3059787999373,None, ritual,"['r', 't', 'u', 'a', 'l', 'return']","[0.8908658002037555, 1.251085099996999, 1.3310396000742912, 1.5311734001152217, 1.6828239001333714, 2.0109614999964833]",,,,,,,,,,19,001,C,2023_Feb_22_1446,student_TT_local,2021.1.4,47.993257945180645,
,None,None,None,None,None,None,None,None,None,None,shroud,jackal,19.5,20.5,video&audio/parole_touch_edited.mp4,video&audio/Sentence4_touch_edited.mp4,parole,hamlet,None,,,,,,,,,,,,,,,,,,,,,,,,,,,,,,,,,,,,,,,,,,,0,8,8,9,,,,,,,,,,,,,,,,,,,,,,,,,,,,,,,,,,,,,,,,,,,,,,,,,3153.3505488999654,3172.8665189999156,None, jackal,"['j', 'a', 'c', 'k', 'a', 'semicolon', 'backspace', 'l', 'return']","[1.064975299872458, 1.2088772999122739, 1.4651085999794304, 1.5609379999805242, 1.7209799999836832, 1.8569805999286473, 2.4970119998324662, 2.889043299946934, 3.104952499968931]",,,,,,,,,,19,001,C,2023_Feb_22_1446,student_TT_local,2021.1.4,47.993257945180645,
,None,None,None,None,None,None,None,None,None,None,mystic,pulpit,19.5,20.5,video&audio/infirm_touch_edited.mp4,video&audio/Sentence4_touch_edited.mp4,infirm,oblige,None,,,,,,,,,,,,,,,,,,,,,,,,,,,,,,,,,,,,,,,,,,,0,9,9,3,,,,,,,,,,,,,,,,,,,,,,,,,,,,,,,,,,,,,,,,,,,,,,,,,3177.014355499996,3196.529847699916,None, pulpit,"['p', 'u', 'l', 'p', 'i', 't', 'return']","[0.8114875999744982, 1.0279220000375062, 1.6513094999827445, 1.8516804999671876, 2.083533799974248, 2.3472414000425488, 2.6753596998751163]",,,,,,,,,,19,001,C,2023_Feb_22_1446,student_TT_local,2021.1.4,47.993257945180645,
,None,None,None,None,None,None,None,None,None,None,apathy,virile,19.5,20.5,video&audio/revolt_touch_edited.mp4,video&audio/Sentence6_touch_edited.mp4,revolt,joiner,None,,,,,,,,,,,,,,,,,,,,,,,,,,,,,,,,,,,,,,,,,,,0,10,10,5,,,,,,,,,,,,,,,,,,,,,,,,,,,,,,,,,,,,,,,,,,,,,,,,,3283.523187899962,3303.038477299968,None, virile,"['v', 'i', 'r', 'i', 'l', 'e', 'return']","[0.706711099948734, 0.9147005998529494, 1.1868706999812275, 1.2828112998977304, 1.5152256998699158, 1.7950228999834508, 2.2587693999521434]",,,,,,,,,,19,001,C,2023_Feb_22_1446,student_TT_local,2021.1.4,47.993257945180645,
,None,None,None,None,None,None,None,None,None,None,matron,subdue,6.5,7.5,video&audio/impose_TT_3X.mp4,video&audio/sentence3_TT_3X.mp4,impose,feudal,None,,,,,,,,,,,,,,,,,,,,,,,,,,,,,,,,,,,,,,,,,,,0,11,11,26,,,,,,,,,,,,,,,,,,,,,,,,,,,,,,,,,,,,,,,,,,,,,,,,,3306.331899799872,3312.8312462000176,None, subdue,"['s', 'u', 'b', 'd', 'u', 'e', 'return']","[1.0136178000830114, 1.1255564000457525, 1.2857755001168698, 1.4936941000632942, 1.59764670021832, 1.725956100039184, 2.102135500172153]",,,,,,,,,,19,001,C,2023_Feb_22_1446,student_TT_local,2021.1.4,47.993257945180645,
,None,None,None,None,None,None,None,None,None,None,mucous,subtle,6.5,7.5,video&audio/brazen_TT_3X.mp4,video&audio/sentence5_TT_3X.mp4,brazen,fungal,None,,,,,,,,,,,,,,,,,,,,,,,,,,,,,,,,,,,,,,,,,,,0,12,12,22,,,,,,,,,,,,,,,,,,,,,,,,,,,,,,,,,,,,,,,,,,,,,,,,,3315.976354500046,3322.4943492000457,None, subtle,"['s', 'u', 'b', 't', 'l', 'e', 'return']","[0.8602519000414759, 0.9800639001186937, 1.0922024000901729, 1.3401573000010103, 1.4921355999540538, 1.6206010999158025, 1.9401853999588639]",,,,,,,,,,19,001,C,2023_Feb_22_1446,student_TT_local,2021.1.4,47.993257945180645,
,None,None,None,None,None,None,None,None,None,None,uphold,debtor,6.5,7.5,video&audio/convoy_TT_3X.mp4,video&audio/sentence1_TT_3X.mp4,convoy,output,None,,,,,,,,,,,,,,,,,,,,,,,,,,,,,,,,,,,,,,,,,,,0,13,13,18,,,,,,,,,,,,,,,,,,,,,,,,,,,,,,,,,,,,,,,,,,,,,,,,,3325.477784199873,3331.993317699991,None, debtor,"['d', 'e', 'b', 't', 'o', 'r', 'return']","[0.635813299799338, 0.9393943999893963, 1.2114698998630047, 1.411496999906376, 1.6035302998498082, 1.7955239999573678, 2.1474050998222083]",,,,,,,,,,19,001,C,2023_Feb_22_1446,student_TT_local,2021.1.4,47.993257945180645,
,None,None,None,None,None,None,None,None,None,None,allure,forage,6.5,7.5,video&audio/legion_TT_3X.mp4,video&audio/sentence6_TT_3X.mp4,legion,campus,None,,,,,,,,,,,,,,,,,,,,,,,,,,,,,,,,,,,,,,,,,,,0,14,14,29,,,,,,,,,,,,,,,,,,,,,,,,,,,,,,,,,,,,,,,,,,,,,,,,,3335.1841690000147,3341.7007402000017,None, forage,"['f', 'o', 'r', 'a', 'g', 'e', 'return']","[0.7753473001066595, 0.8793500999454409, 1.0153592999558896, 1.2234398999717087, 1.463362199952826, 1.631717599928379, 1.8153921999037266]",,,,,,,,,,19,001,C,2023_Feb_22_1446,student_TT_local,2021.1.4,47.993257945180645,
,None,None,None,None,None,None,None,None,None,None,ordain,neural,19.5,20.5,video&audio/quarry_touch_edited.mp4,video&audio/Sentence2_touch_edited.mp4,quarry,septic,None,,,,,,,,,,,,,,,,,,,,,,,,,,,,,,,,,,,,,,,,,,,0,15,15,13,,,,,,,,,,,,,,,,,,,,,,,,,,,,,,,,,,,,,,,,,,,,,,,,,3344.557433999842,3364.073059799848,None, neural,"['n', 'e', 'u', 'r', 'a', 'l', 'return']","[0.7383437999524176, 0.9464209999423474, 1.0583945999387652, 1.2100100999232382, 1.41810919996351, 1.5303452000953257, 1.9065249999985099]",,,,,,,,,,19,001,C,2023_Feb_22_1446,student_TT_local,2021.1.4,47.993257945180645,
,"This is Section 2.

In this section, your task will be the same as before - that is, to type the word you see on the screen after the typing prompt. However, rather than just seeing the word before typing, you will also see a video of someone typing the same word you will need to type at various speeds. 

Press 'enter/return' to go to the next page.","This is Section 4. 

In this section, your task will be the same as before - that is, to type the word you see on the screen after the typing prompt. You will see a video again, like in Section 2, only this time, the video will show someone typing different words to what you must type at various speeds. 

Press 'enter/return' to go to the next page.",video&audio/Example_AOMI_layout.png,1.6,0.6,afford,19.5,20.5,video&audio/afford_touch_edited.mp4,video&audio/amount_touch_edited.mp4,breach,matrix,19.5,20.5,video&audio/vanity_touch_edited.mp4,video&audio/Sentence1_touch_edited.mp4,vanity,hinder,1 = AOMIspec,,,,,,,,,,,,,,,,,,,,,,,,,,,,,,,,,,,,,,,,,,,0,16,16,0,,,,,,,,,,,,,,,,,,,,,,,,,,,,,,,,,,,,,,,,,,,,,,,,,3367.014045199845,3386.5290381000377,None, matrix,"['m', 'a', 't', 'r', 'i', 'x', 'return']","[0.7544074000325054, 0.8983423002064228, 1.2184888001065701, 1.4342683001887053, 1.5703646000474691, 1.8663184000179172, 2.1462903001811355]",,,,,,,,,,19,001,C,2023_Feb_22_1446,student_TT_local,2021.1.4,47.993257945180645,
,None,None,None,None,None,None,None,None,None,None,gullet,picket,6.5,7.5,video&audio/upkeep_TT_3X.mp4,video&audio/sentence5_TT_3X.mp4,upkeep,parish,None,,,,,,,,,,,,,,,,,,,,,,,,,,,,,,,,,,,,,,,,,,,0,17,17,28,,,,,,,,,,,,,,,,,,,,,,,,,,,,,,,,,,,,,,,,,,,,,,,,,3389.7201210998464,3396.2363124999683,None, picket,"['p', 'i', 'c', 'k', 'e', 't', 'return']","[0.7352038999088109, 0.9587991000153124, 1.0868298998102546, 1.24682049988769, 1.3828664999455214, 1.6389216999523342, 1.8869198998436332]",,,,,,,,,,19,001,C,2023_Feb_22_1446,student_TT_local,2021.1.4,47.993257945180645,
,None,None,None,None,None,None,None,None,None,None,shrill,piston,6.5,7.5,video&audio/pursue_TT_3X.mp4,video&audio/sentence3_TT_3X.mp4,pursue,caviar,None,,,,,,,,,,,,,,,,,,,,,,,,,,,,,,,,,,,,,,,,,,,0,18,18,20,,,,,,,,,,,,,,,,,,,,,,,,,,,,,,,,,,,,,,,,,,,,,,,,,3399.15599270002,3405.6724942999426,None, piston,"['p', 'i', 's', 't', 'o', 'n', 'return']","[0.4741534998174757, 0.8017986998893321, 0.9058396997861564, 1.145685900002718, 1.2256912000011653, 1.417709699831903, 1.7937975998502225]",,,,,,,,,,19,001,C,2023_Feb_22_1446,student_TT_local,2021.1.4,47.993257945180645,
,None,None,None,None,None,None,None,None,None,None,defame,covert,19.5,20.5,video&audio/binder_touch_edited.mp4,video&audio/Sentence6_touch_edited.mp4,binder,patent,None,,,,,,,,,,,,,,,,,,,,,,,,,,,,,,,,,,,,,,,,,,,0,19,19,11,,,,,,,,,,,,,,,,,,,,,,,,,,,,,,,,,,,,,,,,,,,,,,,,,3408.5092324998695,3428.0241700999904,None, covert,"['c', 'o', 'v', 'e', 'r', 't', 'return']","[0.6274379999376833, 0.7473603000398725, 0.8994469000026584, 1.1073630000464618, 1.2676025999244303, 1.4439699000213295, 1.6114177000708878]",,,,,,,,,,19,001,C,2023_Feb_22_1446,student_TT_local,2021.1.4,47.993257945180645,
,None,None,None,None,None,None,None,None,None,None,entail,parcel,19.5,20.5,video&audio/novice_touch_edited.mp4,video&audio/Sentence5_touch_edited.mp4,novice,primal,None,,,,,,,,,,,,,,,,,,,,,,,,,,,,,,,,,,,,,,,,,,,0,20,20,4,,,,,,,,,,,,,,,,,,,,,,,,,,,,,,,,,,,,,,,,,,,,,,,,,3726.1588542999234,3745.6751922999974,None, parcel,"['p', 'a', 'r', 'c', 'e', 'l', 'return']","[0.5697519001550972, 0.6818186000455171, 0.9136608999688178, 1.1218638001009822, 1.28164800000377, 1.4014018001034856, 1.7855603999923915]",,,,,,,,,,19,001,C,2023_Feb_22_1446,student_TT_local,2021.1.4,47.993257945180645,
,None,None,None,None,None,None,None,None,None,None,mussel,cortex,6.5,7.5,video&audio/savant_TT_3X.mp4,video&audio/sentence4_TT_3X.mp4,savant,induce,None,,,,,,,,,,,,,,,,,,,,,,,,,,,,,,,,,,,,,,,,,,,0,21,21,21,,,,,,,,,,,,,,,,,,,,,,,,,,,,,,,,,,,,,,,,,,,,,,,,,3748.4910223998595,3755.0076788000297,None, cortex,"['c', 'o', 'r', 't', 'e', 'c', 'backspace', 'x', 'return']","[0.692946600029245, 0.8450521000195295, 1.0608520000241697, 1.269432800123468, 1.4688969000708312, 1.7008959001395851, 2.140931900124997, 2.300858400063589, 2.4369328001048416]",,,,,,,,,,19,001,C,2023_Feb_22_1446,student_TT_local,2021.1.4,47.993257945180645,
,None,None,None,None,None,None,None,None,None,None,ethnic,botany,6.5,7.5,video&audio/fodder_TT_3X.mp4,video&audio/sentence4_TT_3X.mp4,fodder,trench,None,,,,,,,,,,,,,,,,,,,,,,,,,,,,,,,,,,,,,,,,,,,0,22,22,27,,,,,,,,,,,,,,,,,,,,,,,,,,,,,,,,,,,,,,,,,,,,,,,,,3758.4899491998367,3765.0064817999955,None, botany,"['b', 'o', 't', 'a', 'n', 'y', 'return']","[0.6709101998712867, 0.7749667000025511, 0.8872022000141442, 1.0950130999553949, 1.2071260998491198, 1.3910358999855816, 1.711161999963224]",,,,,,,,,,19,001,C,2023_Feb_22_1446,student_TT_local,2021.1.4,47.993257945180645,
,None,None,None,None,None,None,None,None,None,None,export,cervix,6.5,7.5,video&audio/murmur_TT_3X.mp4,video&audio/sentence2_TT_3X.mp4,murmur,cobble,None,,,,,,,,,,,,,,,,,,,,,,,,,,,,,,,,,,,,,,,,,,,0,23,23,19,,,,,,,,,,,,,,,,,,,,,,,,,,,,,,,,,,,,,,,,,,,,,,,,,3767.7611099998467,3774.2763298999052,None, cervix,"['c', 'e', 'r', 'v', 'i', 'x', 'return']","[0.6805209999438375, 0.8565146999899298, 1.0244865999557078, 1.2005711998790503, 1.3364881998859346, 1.6008744998835027, 1.8885011998936534]",,,,,,,,,,19,001,C,2023_Feb_22_1446,student_TT_local,2021.1.4,47.993257945180645,
,None,None,None,None,None,None,None,None,None,None,tamper,confer,19.5,20.5,video&audio/critic_touch_edited.mp4,video&audio/Sentence1_touch_edited.mp4,critic,innate,None,,,,,,,,,,,,,,,,,,,,,,,,,,,,,,,,,,,,,,,,,,,0,24,24,12,,,,,,,,,,,,,,,,,,,,,,,,,,,,,,,,,,,,,,,,,,,,,,,,,3777.195940000005,3796.7112803999335,None, confer,"['c', 'i', 'n', 'f', 'e', 'r', 'equal', 'equal', 'equal', 'backspace', 'backspace', 'backspace', 'backspace', 'backspace', 'backspace', 'backspace', 'backspace', 'o', 'n', 'f', 'e', 'r', 'return']","[0.6604693999979645, 0.7406729999929667, 1.0287878001108766, 1.2604658000636846, 1.3885514000430703, 1.5891462001018226, 1.8763791001401842, 2.052763400133699, 2.196827300125733, 2.6764297001063824, 2.8764680000022054, 3.0285657001659274, 3.164684999966994, 3.3164445001166314, 3.476414500037208, 3.644742000149563, 3.7888126000761986, 4.524335199967027, 4.716413100017235, 5.356465500080958, 5.484981000190601, 5.636521600186825, 5.828654800076038]",,,,,,,,,,19,001,C,2023_Feb_22_1446,student_TT_local,2021.1.4,47.993257945180645,
,None,None,None,None,None,None,None,None,None,None,linear,belfry,6.5,7.5,video&audio/manure_TT_3X.mp4,video&audio/sentence6_TT_3X.mp4,manure,girdle,None,,,,,,,,,,,,,,,,,,,,,,,,,,,,,,,,,,,,,,,,,,,0,25,25,23,,,,,,,,,,,,,,,,,,,,,,,,,,,,,,,,,,,,,,,,,,,,,,,,,3803.5675043000374,3810.084418399958,None, belfry,"['b', 'e', 'l', 'f', 'r', 'y', 'return']","[0.8157460000365973, 0.9354542000219226, 1.1437190000433475, 1.3919911000411958, 2.2314189998432994, 2.3197214999236166, 2.767855599988252]",,,,,,,,,,19,001,C,2023_Feb_22_1446,student_TT_local,2021.1.4,47.993257945180645,
,None,None,None,None,None,None,None,None,None,None,warble,devise,6.5,7.5,video&audio/satire_TT_3X.mp4,video&audio/sentence1_TT_3X.mp4,satire,mangle,None,,,,,,,,,,,,,,,,,,,,,,,,,,,,,,,,,,,,,,,,,,,0,26,26,24,,,,,,,,,,,,,,,,,,,,,,,,,,,,,,,,,,,,,,,,,,,,,,,,,3813.8788332999684,3820.396274999948,None, devise,"['e', 'v', 'i', 's', 'e', 'return']","[0.9503319000359625, 1.1184528002049774, 1.2222696000244468, 1.342660300200805, 1.502375400159508, 1.8783714000601321]",,,,,,,,,,19,001,C,2023_Feb_22_1446,student_TT_local,2021.1.4,47.993257945180645,
,"While you watch the video, imagine yourself typing the word on the screen, like how you did in the imagery practice. While you watch the video and imagine this, rest your hands on your keyboard but DO NOT type until AFTER you see the typing prompt.

Press 'enter/return' to go to the next page.","While watching the video, imagine yourself typing the word on the screen, like how you did in the imagery practice. While you watch the video and imagine this, rest your hands on your keyboard but DO NOT type until AFTER you see the typing prompt.

Press 'enter/return' to go to the next page.",video&audio/Example_AOMI_imagine.png,1.6,1,butter,6.5,7.5,video&audio/butter_TT_3X.mp4,video&audio/amount_TT_3X.mp4,eatery,ascend,19.5,20.5,video&audio/plight_touch_edited.mp4,video&audio/Sentence2_touch_edited.mp4,plight,metric,2 = AOMIgen,,,,,,,,,,,,,,,,,,,,,,,,,,,,,,,,,,,,,,,,,,,0,27,27,1,,,,,,,,,,,,,,,,,,,,,,,,,,,,,,,,,,,,,,,,,,,,,,,,,3823.3169680999126,3842.8306713998318,None, ascend,"['a', 's', 'c', 'e', 'n', 'd', 'return']","[0.6530834999866784, 0.9328842000104487, 1.1168501998763531, 1.2610469998326153, 1.445081999991089, 1.5972120999358594, 2.0695157998707145]",,,,,,,,,,19,001,C,2023_Feb_22_1446,student_TT_local,2021.1.4,47.993257945180645,
,"Remember to type as QUICKLY and ACCURATELY as possible after the 'get ready' prompt.

Ask the experimenter any questions now. Please put on the headphones.

You will get one practice trial. Press 'enter/return' when you are ready to start the practice.","Remember to type as QUICKLY and ACCURATELY as you can after the 'get ready' prompt.

Ask the experimenter any questions now. Please put on the headphones.

You will get one practice trial. Press 'enter/return' when you are ready to start the practice.",video&audio/Example_AOMI_total.png,1.8,0.7,None,None,None,None,None,ghetto,frugal,19.5,20.5,video&audio/jargon_touch_edited.mp4,video&audio/Sentence3_touch_edited.mp4,jargon,oppose,None,,,,,,,,,,,,,,,,,,,,,,,,,,,,,,,,,,,,,,,,,,,0,28,28,2,,,,,,,,,,,,,,,,,,,,,,,,,,,,,,,,,,,,,,,,,,,,,,,,,3845.938733199844,3865.4529247998726,None, frugal,"['f', 'r', 'u', 'g', 'a', 'l', 'return']","[0.7019084999337792, 0.8541074998211116, 0.9817671999335289, 1.1658636999782175, 1.3738357999827713, 1.5258704998996109, 1.9257801999337971]",,,,,,,,,,19,001,C,2023_Feb_22_1446,student_TT_local,2021.1.4,47.993257945180645,
,None,None,None,None,None,None,None,None,None,None,galley,tariff,19.5,20.5,video&audio/strife_touch_edited.mp4,video&audio/Sentence2_touch_edited.mp4,strife,delude,None,,,,,,,,,,,,,,,,,,,,,,,,,,,,,,,,,,,,,,,,,,,0,29,29,7,,,,,,,,,,,,,,,,,,,,,,,,,,,,,,,,,,,,,,,,,,,,,,,,,3868.414586599916,3887.9304655999877,None, tariff,"['t', 'a', 'r', 'i', 'f', 'f', 'return']","[0.8110478001181036, 1.0268079000525177, 1.210745100164786, 1.4508306002244353, 1.5867299002129585, 1.6988363000564277, 1.9787394001614302]",,,,,,,,,,19,001,C,2023_Feb_22_1446,student_TT_local,2021.1.4,47.993257945180645,
,,,,,,,,,,,,,,,,,,,,typingRatingScale.png,"How would you rate your typing performance in the previous section?

Press a number on your keyboard according to the rating scale below to give your answer. Your first answer will be accepted.",,,,,,,,,,,,,,,,,,,,,,,,,,,,,,,,,,,,,,,,,,,,,0,0,0,0,,,,,,,,,,,,,,,,,,,,,,,,,,,,,,,,,,,,,,,,,,,,,,,,,,,['4'],[7.998221599962562],,,,,,,,19,001,C,2023_Feb_22_1446,student_TT_local,2021.1.4,47.993257945180645,
,,,,,,,,,,,,,,,,,,,,imageryCheckScale.png,"In the previous section did you imagine yourself typing?

Press a number on your keyboard according to the rating scale below to give your answer. Your first answer will be accepted.",,,,,,,,,,,,,,,,,,,,,,,,,,,,,,,,,,,,,,,,,,,,,0,1,1,1,,,,,,,,,,,,,,,,,,,,,,,,,,,,,,,,,,,,,,,,,,,,,,,,,,,['2'],[6.0717239999212325],,,,,,,,19,001,C,2023_Feb_22_1446,student_TT_local,2021.1.4,47.993257945180645,
,None,None,None,None,None,None,None,None,None,None,mystic,pulpit,19.5,20.5,video&audio/infirm_touch_edited.mp4,video&audio/Sentence4_touch_edited.mp4,infirm,oblige,None,,,,,,,,,,,,,,,,,,,,,,,,,,,,,,,,,,,,,,,,,,,,,,,,,,,,,,,,,,,0,0,0,3,,,,,,,,,,,,,,,,,None,"['b', 'u', 't', 't', 'e', 'r', 'return']","[0.801705300109461, 0.961600000038743, 1.1138029000721872, 1.2495660001877695, 1.466042100219056, 1.6016846001148224, 1.7936114000622183]",,,,,,,,,,,,,,,,,,,,,,None,None, oblige,"['o', 'b', 'l', 'i', 'g', 'e', 'return']","[1.1020335999783128, 1.3258128999732435, 1.4062669000122696, 1.6537615000270307, 1.7980039999820292, 1.9258562999311835, 2.246282699983567]",,,19,001,C,2023_Feb_22_1446,student_TT_local,2021.1.4,47.993257945180645,
,None,None,None,None,None,None,None,None,None,None,mucous,subtle,6.5,7.5,video&audio/brazen_TT_3X.mp4,video&audio/sentence5_TT_3X.mp4,brazen,fungal,None,,,,,,,,,,,,,,,,,,,,,,,,,,,,,,,,,,,,,,,,,,,,,,,,,,,,,,,,,,,0,1,1,22,,,,,,,,,,,,,,,,,None,,,,,,,,,,,,,,,,,,,,,,,,,None, fungal,"['f', 'u', 'n', 'g', 'a', 'l', 'return']","[1.1292520000133663, 1.2653950001113117, 1.4974700000602752, 1.6575658000074327, 1.9373522999230772, 2.129252300132066, 2.5374233999755234]",,,19,001,C,2023_Feb_22_1446,student_TT_local,2021.1.4,47.993257945180645,
,None,None,None,None,None,None,None,None,None,None,allure,forage,6.5,7.5,video&audio/legion_TT_3X.mp4,video&audio/sentence6_TT_3X.mp4,legion,campus,None,,,,,,,,,,,,,,,,,,,,,,,,,,,,,,,,,,,,,,,,,,,,,,,,,,,,,,,,,,,0,2,2,29,,,,,,,,,,,,,,,,,None,,,,,,,,,,,,,,,,,,,,,,,,,None, campus,"['c', 'a', 'm', 'p', 'u', 's', 'return']","[0.7926817999687046, 0.9690586999058723, 1.272576400078833, 1.6087414000649005, 1.8649323999416083, 2.105078399879858, 2.40877169999294]",,,19,001,C,2023_Feb_22_1446,student_TT_local,2021.1.4,47.993257945180645,
,None,None,None,None,None,None,None,None,None,None,shrill,piston,6.5,7.5,video&audio/pursue_TT_3X.mp4,video&audio/sentence3_TT_3X.mp4,pursue,caviar,None,,,,,,,,,,,,,,,,,,,,,,,,,,,,,,,,,,,,,,,,,,,,,,,,,,,,,,,,,,,0,3,3,20,,,,,,,,,,,,,,,,,None,,,,,,,,,,,,,,,,,,,,,,,,,None, caviar,"['c', 'a', 'v', 'i', 'a', 'r', 'return']","[0.7722911001183093, 0.9400338002014905, 1.1563816000707448, 1.2760545001365244, 1.3880419000051916, 1.5881162001751363, 1.8610359001904726]",,,19,001,C,2023_Feb_22_1446,student_TT_local,2021.1.4,47.993257945180645,
,None,None,None,None,None,None,None,None,None,None,revoke,malady,19.5,20.5,video&audio/mirage_touch_edited.mp4,video&audio/Sentence1_touch_edited.mp4,mirage,shrewd,None,,,,,,,,,,,,,,,,,,,,,,,,,,,,,,,,,,,,,,,,,,,,,,,,,,,,,,,,,,,0,4,4,6,,,,,,,,,,,,,,,,,None,,,,,,,,,,,,,,,,,,,,,,,,,None, shrewd,"['s', 'h', 'r', 'e', 'w', 'd', 'return']","[0.6290658998768777, 0.7651404999196529, 0.965612499974668, 1.141059499932453, 1.3410870998632163, 1.5815585998352617, 1.8453444999177009]",,,19,001,C,2023_Feb_22_1446,student_TT_local,2021.1.4,47.993257945180645,
,None,None,None,None,None,None,None,None,None,None,defame,covert,19.5,20.5,video&audio/binder_touch_edited.mp4,video&audio/Sentence6_touch_edited.mp4,binder,patent,None,,,,,,,,,,,,,,,,,,,,,,,,,,,,,,,,,,,,,,,,,,,,,,,,,,,,,,,,,,,0,5,5,11,,,,,,,,,,,,,,,,,None,,,,,,,,,,,,,,,,,,,,,,,,,None, patent,"['p', 'a', 't', 'e', 'n', 't', 'return']","[0.5996542000211775, 0.7599497998598963, 1.4314909998793155, 1.6875274998601526, 1.8154513998888433, 1.959580099908635, 2.2798489998094738]",,,19,001,C,2023_Feb_22_1446,student_TT_local,2021.1.4,47.993257945180645,
,"This is Section 2.

In this section, your task will be the same as before - that is, to type the word you see on the screen after the typing prompt. However, rather than just seeing the word before typing, you will also see a video of someone typing the same word you will need to type at various speeds. 

Press 'enter/return' to go to the next page.","This is Section 4. 

In this section, your task will be the same as before - that is, to type the word you see on the screen after the typing prompt. You will see a video again, like in Section 2, only this time, the video will show someone typing different words to what you must type at various speeds. 

Press 'enter/return' to go to the next page.",video&audio/Example_AOMI_layout.png,1.6,0.6,afford,19.5,20.5,video&audio/afford_touch_edited.mp4,video&audio/amount_touch_edited.mp4,breach,matrix,19.5,20.5,video&audio/vanity_touch_edited.mp4,video&audio/Sentence1_touch_edited.mp4,vanity,hinder,1 = AOMIspec,,,,,,,,,,,,,,,,,,,,,,,,,,,,,,,,,,,,,,,,,,,,,,,,,,,,,,,,,,,0,6,6,0,,,,,,,,,,,,,,,,,None,,,,,,,,,,,,,,,,,,,,,,,,,None, hinder,"['h', 'i', 'n', 'd', 'e', 'r', 'return']","[0.7333887999411672, 0.8536410999950022, 1.061710799811408, 1.5413178999442607, 1.6856056000106037, 1.8537033998873085, 2.0453649999108166]",,,19,001,C,2023_Feb_22_1446,student_TT_local,2021.1.4,47.993257945180645,
,None,None,None,None,None,None,None,None,None,None,tamper,confer,19.5,20.5,video&audio/critic_touch_edited.mp4,video&audio/Sentence1_touch_edited.mp4,critic,innate,None,,,,,,,,,,,,,,,,,,,,,,,,,,,,,,,,,,,,,,,,,,,,,,,,,,,,,,,,,,,0,7,7,12,,,,,,,,,,,,,,,,,None,,,,,,,,,,,,,,,,,,,,,,,,,None, innate,"['i', 'n', 'n', 'a', 't', 'e', 'return']","[0.4786612999159843, 0.6789977999869734, 0.8548906999640167, 1.0147432000376284, 1.3029193000402302, 1.5274710999801755, 1.838737400015816]",,,19,001,C,2023_Feb_22_1446,student_TT_local,2021.1.4,47.993257945180645,
,None,None,None,None,None,None,None,None,None,None,export,cervix,6.5,7.5,video&audio/murmur_TT_3X.mp4,video&audio/sentence2_TT_3X.mp4,murmur,cobble,None,,,,,,,,,,,,,,,,,,,,,,,,,,,,,,,,,,,,,,,,,,,,,,,,,,,,,,,,,,,0,8,8,19,,,,,,,,,,,,,,,,,None,,,,,,,,,,,,,,,,,,,,,,,,,None, cobble,"['x', 'o', 'b', 'backspace', 'backspace', 'backspace', 'c', 'o', 'b', 'b', 'l', 'e', 'return']","[0.8074041998479515, 0.9356674998998642, 1.3673809000756592, 2.031339199980721, 2.2233613000717014, 2.3992383000440896, 3.375295199919492, 3.91929730004631, 4.183455199934542, 4.303666099905968, 4.4474450999405235, 4.575332999927923, 4.847368400078267]",,,19,001,C,2023_Feb_22_1446,student_TT_local,2021.1.4,47.993257945180645,
,None,None,None,None,None,None,None,None,None,None,mussel,cortex,6.5,7.5,video&audio/savant_TT_3X.mp4,video&audio/sentence4_TT_3X.mp4,savant,induce,None,,,,,,,,,,,,,,,,,,,,,,,,,,,,,,,,,,,,,,,,,,,,,,,,,,,,,,,,,,,0,9,9,21,,,,,,,,,,,,,,,,,None,,,,,,,,,,,,,,,,,,,,,,,,,None, induce,"['i', 'n', 'd', 'u', 'c', 'e', 'return']","[0.6691743000410497, 0.8454192001372576, 1.037274300120771, 1.1739628000650555, 1.341527600074187, 1.525378999998793, 1.8856512000784278]",,,19,001,C,2023_Feb_22_1446,student_TT_local,2021.1.4,47.993257945180645,
,None,None,None,None,None,None,None,None,None,None,divert,kipper,6.5,7.5,video&audio/musket_TT_3X.mp4,video&audio/sentence2_TT_3X.mp4,musket,meddle,None,,,,,,,,,,,,,,,,,,,,,,,,,,,,,,,,,,,,,,,,,,,,,,,,,,,,,,,,,,,0,10,10,25,,,,,,,,,,,,,,,,,None,,,,,,,,,,,,,,,,,,,,,,,,,None, meddle,"['m', 'e', 'd', 'd', 'l', 'e', 'return']","[0.5690373999532312, 0.7448537000454962, 0.9292017999105155, 1.081337499897927, 1.240933199878782, 1.4333472999278456, 1.728829599916935]",,,19,001,C,2023_Feb_22_1446,student_TT_local,2021.1.4,47.993257945180645,
,None,None,None,None,None,None,None,None,None,None,entail,parcel,19.5,20.5,video&audio/novice_touch_edited.mp4,video&audio/Sentence5_touch_edited.mp4,novice,primal,None,,,,,,,,,,,,,,,,,,,,,,,,,,,,,,,,,,,,,,,,,,,,,,,,,,,,,,,,,,,0,11,11,4,,,,,,,,,,,,,,,,,None,,,,,,,,,,,,,,,,,,,,,,,,,None, primal,"['p', 'r', 'i', 'm', 'a', 'l', 'return']","[0.7641767000313848, 1.0440833999309689, 1.1560873000416905, 1.3640818998683244, 1.5162098999135196, 1.7167988999281079, 2.220478900009766]",,,19,001,C,2023_Feb_22_1446,student_TT_local,2021.1.4,47.993257945180645,
,None,None,None,None,None,None,None,None,None,None,linear,belfry,6.5,7.5,video&audio/manure_TT_3X.mp4,video&audio/sentence6_TT_3X.mp4,manure,girdle,None,,,,,,,,,,,,,,,,,,,,,,,,,,,,,,,,,,,,,,,,,,,,,,,,,,,,,,,,,,,0,12,12,23,,,,,,,,,,,,,,,,,None,,,,,,,,,,,,,,,,,,,,,,,,,None, girdle,"['g', 'i', 'r', 'd', 'l', 'e', 'return']","[0.762550399871543, 0.922974499873817, 1.0745608999859542, 1.3145484998822212, 1.4432787999976426, 1.6426875998731703, 1.946635799948126]",,,19,001,C,2023_Feb_22_1446,student_TT_local,2021.1.4,47.993257945180645,
,None,None,None,None,None,None,None,None,None,None,galley,tariff,19.5,20.5,video&audio/strife_touch_edited.mp4,video&audio/Sentence2_touch_edited.mp4,strife,delude,None,,,,,,,,,,,,,,,,,,,,,,,,,,,,,,,,,,,,,,,,,,,,,,,,,,,,,,,,,,,0,13,13,7,,,,,,,,,,,,,,,,,None,,,,,,,,,,,,,,,,,,,,,,,,,None, delude,"['d', 'e', 'l', 'u', 'd', 'e', 'return']","[0.6367843998596072, 0.989108599955216, 1.148742699995637, 1.5570081998594105, 1.7167415998410434, 1.8290474999230355, 2.06899549998343]",,,19,001,C,2023_Feb_22_1446,student_TT_local,2021.1.4,47.993257945180645,
,"While you watch the video, imagine yourself typing the word on the screen, like how you did in the imagery practice. While you watch the video and imagine this, rest your hands on your keyboard but DO NOT type until AFTER you see the typing prompt.

Press 'enter/return' to go to the next page.","While watching the video, imagine yourself typing the word on the screen, like how you did in the imagery practice. While you watch the video and imagine this, rest your hands on your keyboard but DO NOT type until AFTER you see the typing prompt.

Press 'enter/return' to go to the next page.",video&audio/Example_AOMI_imagine.png,1.6,1,butter,6.5,7.5,video&audio/butter_TT_3X.mp4,video&audio/amount_TT_3X.mp4,eatery,ascend,19.5,20.5,video&audio/plight_touch_edited.mp4,video&audio/Sentence2_touch_edited.mp4,plight,metric,2 = AOMIgen,,,,,,,,,,,,,,,,,,,,,,,,,,,,,,,,,,,,,,,,,,,,,,,,,,,,,,,,,,,0,14,14,1,,,,,,,,,,,,,,,,,None,,,,,,,,,,,,,,,,,,,,,,,,,None, metric,"['m', 'e', 't', 'r', 'i', 'c', 'return']","[0.5239869998767972, 0.652080399915576, 0.8840624999720603, 1.1000587998423725, 1.196019300026819, 1.3640119000338018, 1.668230699840933]",,,19,001,C,2023_Feb_22_1446,student_TT_local,2021.1.4,47.993257945180645,
,None,None,None,None,None,None,None,None,None,None,uphold,debtor,6.5,7.5,video&audio/convoy_TT_3X.mp4,video&audio/sentence1_TT_3X.mp4,convoy,output,None,,,,,,,,,,,,,,,,,,,,,,,,,,,,,,,,,,,,,,,,,,,,,,,,,,,,,,,,,,,0,15,15,18,,,,,,,,,,,,,,,,,None,,,,,,,,,,,,,,,,,,,,,,,,,None, output,"['o', 'u', 't', 'bracketleft', 'u', 't', 'backspace', 'backspace', 'backspace', 'p', 'u', 't', 'return']","[1.1127909000497311, 1.3208272999618202, 1.6010547999758273, 1.776690199971199, 2.113118999870494, 2.272702399874106, 2.7767215999774635, 2.9605894999112934, 3.11258769989945, 3.5850601999554783, 4.009016799973324, 4.248907999834046, 4.536845599999651]",,,19,001,C,2023_Feb_22_1446,student_TT_local,2021.1.4,47.993257945180645,
,"Remember to type as QUICKLY and ACCURATELY as possible after the 'get ready' prompt.

Ask the experimenter any questions now. Please put on the headphones.

You will get one practice trial. Press 'enter/return' when you are ready to start the practice.","Remember to type as QUICKLY and ACCURATELY as you can after the 'get ready' prompt.

Ask the experimenter any questions now. Please put on the headphones.

You will get one practice trial. Press 'enter/return' when you are ready to start the practice.",video&audio/Example_AOMI_total.png,1.8,0.7,None,None,None,None,None,ghetto,frugal,19.5,20.5,video&audio/jargon_touch_edited.mp4,video&audio/Sentence3_touch_edited.mp4,jargon,oppose,None,,,,,,,,,,,,,,,,,,,,,,,,,,,,,,,,,,,,,,,,,,,,,,,,,,,,,,,,,,,0,16,16,2,,,,,,,,,,,,,,,,,None,,,,,,,,,,,,,,,,,,,,,,,,,None, oppose,"['o', 'p', 'p', 'o', 's', 'e', 'return']","[0.45963489986024797, 0.7159323999658227, 0.8996840000618249, 1.0519230000209063, 1.2437765998765826, 1.4676896999590099, 1.6997638999018818]",,,19,001,C,2023_Feb_22_1446,student_TT_local,2021.1.4,47.993257945180645,
,None,None,None,None,None,None,None,None,None,None,matron,subdue,6.5,7.5,video&audio/impose_TT_3X.mp4,video&audio/sentence3_TT_3X.mp4,impose,feudal,None,,,,,,,,,,,,,,,,,,,,,,,,,,,,,,,,,,,,,,,,,,,,,,,,,,,,,,,,,,,0,17,17,26,,,,,,,,,,,,,,,,,None,,,,,,,,,,,,,,,,,,,,,,,,,None, feudal,"['f', 'e', 'u', 'd', 'a', 'l', 'return']","[0.7676862999796867, 1.0474644999485463, 1.2953546999488026, 1.5434612000826746, 1.7512775999493897, 1.8713911001104861, 2.239355100085959]",,,19,001,C,2023_Feb_22_1446,student_TT_local,2021.1.4,47.993257945180645,
,None,None,None,None,None,None,None,None,None,None,herbal,hippie,19.5,20.5,video&audio/sonnet_touch_edited.mp4,video&audio/Sentence3_touch_edited.mp4,sonnet,hearth,None,,,,,,,,,,,,,,,,,,,,,,,,,,,,,,,,,,,,,,,,,,,,,,,,,,,,,,,,,,,0,18,18,14,,,,,,,,,,,,,,,,,None,,,,,,,,,,,,,,,,,,,,,,,,,None, hearth,"['h', 'e', 'a', 'r', 't', 'h', 'return']","[0.5662297001108527, 0.6943169001024216, 0.862251800019294, 1.086295000044629, 1.2863767000380903, 1.4303099000826478, 1.8390872001182288]",,,19,001,C,2023_Feb_22_1446,student_TT_local,2021.1.4,47.993257945180645,
,None,None,None,None,None,None,None,None,None,None,gullet,picket,6.5,7.5,video&audio/upkeep_TT_3X.mp4,video&audio/sentence5_TT_3X.mp4,upkeep,parish,None,,,,,,,,,,,,,,,,,,,,,,,,,,,,,,,,,,,,,,,,,,,,,,,,,,,,,,,,,,,0,19,19,28,,,,,,,,,,,,,,,,,None,,,,,,,,,,,,,,,,,,,,,,,,,None, parish,"['p', 'a', 'r', 'i', 's', 'h', 'return']","[0.6281938999891281, 0.8764239000156522, 1.108207899844274, 1.2281568998005241, 1.4042703998275101, 1.500515199964866, 1.876164399785921]",,,19,001,C,2023_Feb_22_1446,student_TT_local,2021.1.4,47.993257945180645,
,None,None,None,None,None,None,None,None,None,None,warble,devise,6.5,7.5,video&audio/satire_TT_3X.mp4,video&audio/sentence1_TT_3X.mp4,satire,mangle,None,,,,,,,,,,,,,,,,,,,,,,,,,,,,,,,,,,,,,,,,,,,,,,,,,,,,,,,,,,,0,20,20,24,,,,,,,,,,,,,,,,,None,,,,,,,,,,,,,,,,,,,,,,,,,None, mangle,"['m', 'a', 'n', 'g', 'l', 'e', 'return']","[0.4913664001505822, 0.7068527000956237, 0.8750822001602501, 1.0914805000647902, 1.2588683001231402, 1.4187437000218779, 1.6589744000229985]",,,19,001,C,2023_Feb_22_1446,student_TT_local,2021.1.4,47.993257945180645,
,None,None,None,None,None,None,None,None,None,None,ordain,neural,19.5,20.5,video&audio/quarry_touch_edited.mp4,video&audio/Sentence2_touch_edited.mp4,quarry,septic,None,,,,,,,,,,,,,,,,,,,,,,,,,,,,,,,,,,,,,,,,,,,,,,,,,,,,,,,,,,,0,21,21,13,,,,,,,,,,,,,,,,,None,,,,,,,,,,,,,,,,,,,,,,,,,None, septic,"['s', 'e', 'p', 't', 'i', 'c', 'return']","[0.535057800123468, 0.9432775001041591, 1.0794791001826525, 1.287308500148356, 1.4151357000228018, 1.6152927000075579, 1.9831287001725286]",,,19,001,C,2023_Feb_22_1446,student_TT_local,2021.1.4,47.993257945180645,
,None,None,None,None,None,None,None,None,None,None,fusion,obsess,19.5,20.5,video&audio/sherry_touch_edited.mp4,video&audio/Sentence5_touch_edited.mp4,sherry,zephyr,None,,,,,,,,,,,,,,,,,,,,,,,,,,,,,,,,,,,,,,,,,,,,,,,,,,,,,,,,,,,0,22,22,10,,,,,,,,,,,,,,,,,None,,,,,,,,,,,,,,,,,,,,,,,,,None, zephyr,"['z', 'e', 'p', 'h', 'y', 'r', 'return']","[1.0780384000390768, 1.2860988001339138, 1.4541054000146687, 1.6940607000142336, 1.9019801001995802, 2.030104500008747, 2.422042300226167]",,,19,001,C,2023_Feb_22_1446,student_TT_local,2021.1.4,47.993257945180645,
,None,None,None,None,None,None,None,None,None,None,origin,falter,6.5,7.5,video&audio/potent_TT_3X.mp4,video&audio/sentence4_TT_3X.mp4,potent,tandem,None,,,,,,,,,,,,,,,,,,,,,,,,,,,,,,,,,,,,,,,,,,,,,,,,,,,,,,,,,,,0,23,23,15,,,,,,,,,,,,,,,,,None,,,,,,,,,,,,,,,,,,,,,,,,,None, tandem,"['t', 'a', 'n', 'd', 'e', 'm', 'return']","[0.6868503000587225, 0.9187886998988688, 0.9990363998804241, 1.1348327999003232, 1.271045499946922, 1.374885099940002, 1.6792212000582367]",,,19,001,C,2023_Feb_22_1446,student_TT_local,2021.1.4,47.993257945180645,
,None,None,None,None,None,None,None,None,None,None,ration,solemn,19.5,20.5,video&audio/goblet_touch_edited.mp4,video&audio/Sentence3_touch_edited.mp4,goblet,befall,None,,,,,,,,,,,,,,,,,,,,,,,,,,,,,,,,,,,,,,,,,,,,,,,,,,,,,,,,,,,0,24,24,8,,,,,,,,,,,,,,,,,None,,,,,,,,,,,,,,,,,,,,,,,,,None, befall,"['b', 'e', 'f', 'a', 'l', 'l', 'return']","[0.612074000062421, 0.755616300040856, 0.9717047000303864, 1.1315973000600934, 1.4835133999586105, 1.6516106999479234, 2.0757440999150276]",,,19,001,C,2023_Feb_22_1446,student_TT_local,2021.1.4,47.993257945180645,
,None,None,None,None,None,None,None,None,None,None,portal,ritual,6.5,7.5,video&audio/coerce_TT_3X.mp4,video&audio/sentence6_TT_3X.mp4,coerce,clergy,None,,,,,,,,,,,,,,,,,,,,,,,,,,,,,,,,,,,,,,,,,,,,,,,,,,,,,,,,,,,0,25,25,17,,,,,,,,,,,,,,,,,None,,,,,,,,,,,,,,,,,,,,,,,,,None, clergy,"['c', 'l', 'e', 'r', 'g', 'y', 'return']","[0.9183424001093954, 1.061982300132513, 1.1660993001423776, 1.3422928000800312, 1.5261297000106424, 1.9820089000277221, 2.1662409000564367]",,,19,001,C,2023_Feb_22_1446,student_TT_local,2021.1.4,47.993257945180645,
,None,None,None,None,None,None,None,None,None,None,shroud,jackal,19.5,20.5,video&audio/parole_touch_edited.mp4,video&audio/Sentence4_touch_edited.mp4,parole,hamlet,None,,,,,,,,,,,,,,,,,,,,,,,,,,,,,,,,,,,,,,,,,,,,,,,,,,,,,,,,,,,0,26,26,9,,,,,,,,,,,,,,,,,None,,,,,,,,,,,,,,,,,,,,,,,,,None, hamlet,"['j', 'a', 'comma', 'l', 'e', 'backspace', 'backspace', 'backspace', 'backspace', 'backspace', 'h', 'a', 'm', 'l', 'e', 't', 'return']","[0.6821822000201792, 0.921824200078845, 1.1056517001707107, 1.2898647000547498, 1.5538195001427084, 2.0097511999774724, 2.193663800135255, 2.3458237999584526, 2.5217130000237375, 2.6576735000126064, 3.4817391000688076, 3.62566090002656, 3.786054200027138, 4.0337239999789745, 4.1616261000745, 4.337758700130507, 4.5779784000478685]",,,19,001,C,2023_Feb_22_1446,student_TT_local,2021.1.4,47.993257945180645,
,None,None,None,None,None,None,None,None,None,None,apathy,virile,19.5,20.5,video&audio/revolt_touch_edited.mp4,video&audio/Sentence6_touch_edited.mp4,revolt,joiner,None,,,,,,,,,,,,,,,,,,,,,,,,,,,,,,,,,,,,,,,,,,,,,,,,,,,,,,,,,,,0,27,27,5,,,,,,,,,,,,,,,,,None,,,,,,,,,,,,,,,,,,,,,,,,,None, joiner,"['j', 'o', 'i', 'n', 'e', 'r', 'return']","[0.7987083999905735, 1.0223922000732273, 1.3104592999443412, 1.5588861000724137, 1.742415999993682, 1.95040740002878, 2.174345799954608]",,,19,001,C,2023_Feb_22_1446,student_TT_local,2021.1.4,47.993257945180645,
,None,None,None,None,None,None,None,None,None,None,ethnic,botany,6.5,7.5,video&audio/fodder_TT_3X.mp4,video&audio/sentence4_TT_3X.mp4,fodder,trench,None,,,,,,,,,,,,,,,,,,,,,,,,,,,,,,,,,,,,,,,,,,,,,,,,,,,,,,,,,,,0,28,28,27,,,,,,,,,,,,,,,,,None,,,,,,,,,,,,,,,,,,,,,,,,,None, trench,"['t', 'r', 'e', 'n', 'c', 'h', 'return']","[0.8723980998620391, 1.0722767999395728, 1.3046062998473644, 1.5202218999620527, 1.7282453998923302, 1.8162237999495119, 2.208499299827963]",,,19,001,C,2023_Feb_22_1446,student_TT_local,2021.1.4,47.993257945180645,
,None,None,None,None,None,None,None,None,None,None,nettle,plasma,6.5,7.5,video&audio/deduct_TT_3X.mp4,video&audio/sentence5_TT_3X.mp4,deduct,jailer,None,,,,,,,,,,,,,,,,,,,,,,,,,,,,,,,,,,,,,,,,,,,,,,,,,,,,,,,,,,,0,29,29,16,,,,,,,,,,,,,,,,,None,,,,,,,,,,,,,,,,,,,,,,,,,None, jailer,"['j', 'a', 'i', 'l', 'e', 'r', 'return']","[0.6168084000237286, 0.8164764000102878, 0.944862199947238, 1.1285184000153095, 1.2804089998826385, 1.432704599807039, 1.6566586999688298]",,,19,001,C,2023_Feb_22_1446,student_TT_local,2021.1.4,47.993257945180645,
,,,,,,,,,,,,,,,,,,,,typingRatingScale.png,"How would you rate your typing performance in the previous section?

Press a number on your keyboard according to the rating scale below to give your answer. Your first answer will be accepted.",,,,,,,,,,,,,,,,,,,,,,,,,,,,,,,,,,,,,,,,,,,,,,,,,,,,,,,,,,,,,0,0,0,0,,,,,,,,,,,,,,,,,,,,,,,,,,,,,,,,,,,,,,,,,,['4'],[3.8169181998819113],19,001,C,2023_Feb_22_1446,student_TT_local,2021.1.4,47.993257945180645,
,,,,,,,,,,,,,,,,,,,,visualImageryScale.png,"While imagining yourself typing, how clear was your visual image?

Press a number on your keyboard according to the rating scale below to give your answer. Your first answer will be accepted.",,,,,,,,,,,,,,,,,,,,,,,,,,,,,,,,,,,,,,,,,,,,,,,,,,,,,,,,,,,,,0,1,1,1,,,,,,,,,,,,,,,,,,,,,,,,,,,,,,,,,,,,,,,,,,['4'],[2.835321999853477],19,001,C,2023_Feb_22_1446,student_TT_local,2021.1.4,47.993257945180645,
,,,,,,,,,,,,,,,,,,,,kinestheticImageryScale.png,"While imagining yourself typing, how intense were the sensations associated with the imagined movement?

Press a number on your keyboard according to the rating scale below to give your answer. Your first answer will be accepted.",,,,,,,,,,,,,,,,,,,,,,,,,,,,,,,,,,,,,,,,,,,,,,,,,,,,,,,,,,,,,0,2,2,2,,,,,,,,,,,,,,,,,,,,,,,,,,,,,,,,,,,,,,,,,,['4'],[7.830678700003773],19,001,C,2023_Feb_22_1446,student_TT_local,2021.1.4,47.993257945180645,
