pracWords,instr_1,instr_2,AOMI_Ima,AOMI_w,AOMI_h,practiceWords,prac_time,prac_bkgd_time,pracVid_1,pracVid_2,baseline_words,control_words,cont_time,cont_bgkd_time,first_vids,second_vids,AOMIfirst_words,AOMIsecond_words,Order,ratingScale,rateInstr,instructLoop.thisRepN,instructLoop.thisTrialN,instructLoop.thisN,instructLoop.thisIndex,practice_control.thisRepN,practice_control.thisTrialN,practice_control.thisN,practice_control.thisIndex,trials_1.thisRepN,trials_1.thisTrialN,trials_1.thisN,trials_1.thisIndex,baseRateLoop.thisRepN,baseRateLoop.thisTrialN,baseRateLoop.thisN,baseRateLoop.thisIndex,AOMIinstrLoop1.thisRepN,AOMIinstrLoop1.thisTrialN,AOMIinstrLoop1.thisN,AOMIinstrLoop1.thisIndex,AOMIpracLoop.thisRepN,AOMIpracLoop.thisTrialN,AOMIpracLoop.thisN,AOMIpracLoop.thisIndex,trials_2.thisRepN,trials_2.thisTrialN,trials_2.thisN,trials_2.thisIndex,AOMI1rateLoop.thisRepN,AOMI1rateLoop.thisTrialN,AOMI1rateLoop.thisN,AOMI1rateLoop.thisIndex,contInstrLoop.thisRepN,contInstrLoop.thisTrialN,contInstrLoop.thisN,contInstrLoop.thisIndex,contPracLoop.thisRepN,contPracLoop.thisTrialN,contPracLoop.thisN,contPracLoop.thisIndex,trials_3.thisRepN,trials_3.thisTrialN,trials_3.thisN,trials_3.thisIndex,contRateLoop.thisRepN,contRateLoop.thisTrialN,contRateLoop.thisN,contRateLoop.thisIndex,AOMIinstrLoop2.thisRepN,AOMIinstrLoop2.thisTrialN,AOMIinstrLoop2.thisN,AOMIinstrLoop2.thisIndex,AOMIpracLoop2.thisRepN,AOMIpracLoop2.thisTrialN,AOMIpracLoop2.thisN,AOMIpracLoop2.thisIndex,trials_4.thisRepN,trials_4.thisTrialN,trials_4.thisN,trials_4.thisIndex,AOMI2rateLoop.thisRepN,AOMI2rateLoop.thisTrialN,AOMI2rateLoop.thisN,AOMI2rateLoop.thisIndex,pracBkgdKeys.keys,pracBkgdKeys.rt,pracKeys.keys,pracKeys.rt,baseBkgdKeys.keys,base_typedWord,baseKeys.keys,baseKeys.rt,baseBkgdKeys.rt,baseRateTypeKey.keys,baseRateTypeKey.rt,AOMI1_BkgdKeys.keys,AOMI_promptBkgdKeys.keys,AOMI1pracKeys.keys,AOMI1pracKeys.rt,AOMI1bkdgKeys.keys,AOMI1_typedWord,AOMI1keys.keys,AOMI1keys.rt,AOMI1bkdgKeys.rt,AOMI1rateTypeKey.keys,AOMI1rateTypeKey.rt,polygon_prac.started,polygon_prac.stopped,contBkgdKeys_prac.keys,contPrac_typedWord,contKeys_prac.keys,contKeys_prac.rt,polygon.started,polygon.stopped,contBkgdKeys.keys,cont_typedWord,contKeys.keys,contKeys.rt,contTypeKey.keys,contTypeKey.rt,bkgdkeys_prac2.keys,bkgdKeys4.keys,AOMI2_typedWord,keyboardCom4.keys,keyboardCom4.rt,AOMI2typeKey.keys,AOMI2typeKey.rt,participant,session,group,date,expName,psychopyVersion,frameRate,
update,,,,,,,,,,,,,,,,,,,,,,,,,,0,0,0,2,,,,,,,,,,,,,,,,,,,,,,,,,,,,,,,,,,,,,,,,,,,,,,,,,,,,,,,,,"['u', 'p', 'd', 'a', 't', 'e']","[1.2717464999295771, 1.4884150000289083, 1.927570200059563, 2.056683599948883, 2.2166748999152333, 2.279598099878058]","['u', 'p', 'd', 'a', 't', 'e', 'return']","[4.54940570006147, 4.733403500169516, 4.846458800137043, 4.957927800016478, 5.0856314999982715, 5.1747791999951005, 5.678587300004438]",,,,,,,,,,,,,,,,,,,,,,,,,,,,,,,,,,,,,,,,1,001,F,2023_Jan_31_0946,student_TT_local,2021.1.4,59.625314530267396,
replay,,,,,,,,,,,,,,,,,,,,,,,,,,0,1,1,1,,,,,,,,,,,,,,,,,,,,,,,,,,,,,,,,,,,,,,,,,,,,,,,,,,,,,,,,,None,,"['r', 'e', 'o', 'k', 'backspace', 'backspace', 'p', 'l', 'a', 'y', 'return']","[0.8391580998431891, 0.911299099912867, 1.039365799864754, 1.2236961999442428, 2.3034039998892695, 2.4956149999052286, 3.239480899879709, 3.3036443998571485, 3.4716623998247087, 3.6234941999427974, 3.879129600012675]",,,,,,,,,,,,,,,,,,,,,,,,,,,,,,,,,,,,,,,,1,001,F,2023_Jan_31_0946,student_TT_local,2021.1.4,59.625314530267396,
height,,,,,,,,,,,,,,,,,,,,,,,,,,0,2,2,0,,,,,,,,,,,,,,,,,,,,,,,,,,,,,,,,,,,,,,,,,,,,,,,,,,,,,,,,,"['h', 'e']","[2.7227102001197636, 2.874716900056228]","['h', 'e', 'i', 'g', 'g', 'h', 't', 'backspace', 'backspace', 'backspace', 'h', 't', 'return']","[0.9711985997855663, 1.1161922998726368, 1.25129109993577, 1.3551391998771578, 1.4104943999554962, 1.6187343997880816, 1.7225860999897122, 2.4426146999467164, 2.578630899777636, 2.715792599832639, 3.2188688998576254, 3.370703599881381, 3.6429512999020517]",,,,,,,,,,,,,,,,,,,,,,,,,,,,,,,,,,,,,,,,1,001,F,2023_Jan_31_0946,student_TT_local,2021.1.4,59.625314530267396,
update,,,,,,,,,,,,,,,,,,,,,,,,,,1,0,3,2,,,,,,,,,,,,,,,,,,,,,,,,,,,,,,,,,,,,,,,,,,,,,,,,,,,,,,,,,None,,"['u', 'bracketleft', 'a', 't', 'backspace', 'backspace', 'backspace', 'p', 'd', 'a', 't', 'e', 'return']","[0.5377507999073714, 0.9061844998504966, 1.0824304998386651, 1.1615890997927636, 1.5614618000108749, 1.69008219987154, 1.8338595998939127, 2.4575225999578834, 2.689530299976468, 2.9056556997820735, 2.9453805999364704, 3.0340271999593824, 3.2414374998770654]",,,,,,,,,,,,,,,,,,,,,,,,,,,,,,,,,,,,,,,,1,001,F,2023_Jan_31_0946,student_TT_local,2021.1.4,59.625314530267396,
height,,,,,,,,,,,,,,,,,,,,,,,,,,1,1,4,0,,,,,,,,,,,,,,,,,,,,,,,,,,,,,,,,,,,,,,,,,,,,,,,,,,,,,,,,,None,,"['h', 'e', 'i', 'g', 'h', 't', 'return']","[0.9497579000890255, 1.0465466000605375, 1.1816471000202, 1.3104060001205653, 1.47785979998298, 1.589761400129646, 1.781690200092271]",,,,,,,,,,,,,,,,,,,,,,,,,,,,,,,,,,,,,,,,1,001,F,2023_Jan_31_0946,student_TT_local,2021.1.4,59.625314530267396,
replay,,,,,,,,,,,,,,,,,,,,,,,,,,1,2,5,1,,,,,,,,,,,,,,,,,,,,,,,,,,,,,,,,,,,,,,,,,,,,,,,,,,,,,,,,,None,,"['r', 'e', 'p', 'l', 'a', 'y', 'return']","[0.46892200014553964, 0.5168345000129193, 0.6458560000173748, 0.7577351999934763, 0.9577131001278758, 1.2291011000052094, 1.3413784001022577]",,,,,,,,,,,,,,,,,,,,,,,,,,,,,,,,,,,,,,,,1,001,F,2023_Jan_31_0946,student_TT_local,2021.1.4,59.625314530267396,
,None,None,None,None,None,None,None,None,None,None,sonnet,confer,6.5,7.5,video&audio/sentence1_TT_3X.mp4,video&audio/innate_TT_3X.mp4,tamper,innate,None,,,,,,,,,,,0,0,0,12,,,,,,,,,,,,,,,,,,,,,,,,,,,,,,,,,,,,,,,,,,,,,,,,,,,,,,,,,None, sonnet,"['s', 'o', 'n', 'n', 'e', 't', 'return']","[0.7536549000069499, 0.8571064998395741, 1.2098371998872608, 1.3863212999422103, 1.5374162998050451, 1.5927932998165488, 1.7214561000000685]",,,,,,,,,,,,,,,,,,,,,,,,,,,,,,,,,,,,1,001,F,2023_Jan_31_0946,student_TT_local,2021.1.4,59.625314530267396,
,"This is Section 2.

In this section, your task will be the same as before - that is, to type the word you see on the screen AFTER the typing prompt. However, rather than just seeing the word before typing, you will also see a video of someone typing different words to what you will need to type at different speeds. 

Press 'enter/return' to go to the next page.","This is Section 4. 

In this section, your task will be the same as before - that is, to type the word you see on the screen after the typing prompt. You will see a video again, like in Section 2, only this time, the video will show someone the same word that you must type at different speeds. 

Press 'enter/return' to go to the next page.",video&audio/Example_AOMI_layout.png,1.6,0.6,afford,19.5,20.5,video&audio/amount_touch_edited.mp4,video&audio/afford_touch_edited.mp4,vanity,matrix,6.5,7.5,video&audio/sentence1_TT_3X.mp4,video&audio/hinder_TT_3X.mp4,breach,hinder,1 = AOMIgen,,,,,,,,,,,0,1,1,0,,,,,,,,,,,,,,,,,,,,,,,,,,,,,,,,,,,,,,,,,,,,,,,,,,,,,,,,,None, vanity,"['v', 'a', 'n', 'i', 't', 'y', 'return']","[0.557235499843955, 0.6604821998625994, 0.7887070998549461, 0.964771999977529, 1.0688634999096394, 1.4929374000057578, 1.7726912999060005]",,,,,,,,,,,,,,,,,,,,,,,,,,,,,,,,,,,,1,001,F,2023_Jan_31_0946,student_TT_local,2021.1.4,59.625314530267396,
,None,None,None,None,None,None,None,None,None,None,parole,solemn,6.5,7.5,video&audio/sentence3_TT_3X.mp4,video&audio/befall_TT_3X.mp4,ration,befall,None,,,,,,,,,,,0,2,2,8,,,,,,,,,,,,,,,,,,,,,,,,,,,,,,,,,,,,,,,,,,,,,,,,,,,,,,,,,None, parole,"['p', 'a', 'r', 'o', 'l', 'e', 'return']","[0.6584493999835104, 0.8663301998749375, 0.9400736999232322, 1.1704390000086278, 1.386596699943766, 1.4589943999890238, 1.6185160998720676]",,,,,,,,,,,,,,,,,,,,,,,,,,,,,,,,,,,,1,001,F,2023_Jan_31_0946,student_TT_local,2021.1.4,59.625314530267396,
,None,None,None,None,None,None,None,None,None,None,deduct,hippie,6.5,7.5,video&audio/sentence3_TT_3X.mp4,video&audio/hearth_TT_3X.mp4,herbal,hearth,None,,,,,,,,,,,0,3,3,14,,,,,,,,,,,,,,,,,,,,,,,,,,,,,,,,,,,,,,,,,,,,,,,,,,,,,,,,,None, deduct,"['d', 'e', 'u', 'd', 'backspace', 'backspace', 'd', 'u', 'c', 't', 'return']","[0.39133840007707477, 0.5993115999735892, 0.8473386999685317, 1.3512301000300795, 1.919228299986571, 2.0477915999945253, 2.272886399878189, 2.4079545999411494, 2.4959263999480754, 2.7920174999162555, 2.839309500064701]",,,,,,,,,,,,,,,,,,,,,,,,,,,,,,,,,,,,1,001,F,2023_Jan_31_0946,student_TT_local,2021.1.4,59.625314530267396,
,None,None,None,None,None,None,None,None,None,None,satire,cortex,19.5,20.5,video&audio/Sentence4_touch_edited.mp4,video&audio/induce_touch_edited.mp4,mussel,induce,None,,,,,,,,,,,0,4,4,21,,,,,,,,,,,,,,,,,,,,,,,,,,,,,,,,,,,,,,,,,,,,,,,,,,,,,,,,,None, satire,"['s', 'a', 't', 'i', 'r', 'e', 'return']","[0.44324850011616945, 0.5803420001175255, 0.7480624001473188, 0.9001479002181441, 1.1394860001746565, 1.1878965001087636, 1.355503300204873]",,,,,,,,,,,,,,,,,,,,,,,,,,,,,,,,,,,,1,001,F,2023_Jan_31_0946,student_TT_local,2021.1.4,59.625314530267396,
,None,None,None,None,None,None,None,None,None,None,mirage,malady,6.5,7.5,video&audio/sentence1_TT_3X.mp4,video&audio/shrewd_TT_3X.mp4,revoke,shrewd,None,,,,,,,,,,,0,5,5,6,,,,,,,,,,,,,,,,,,,,,,,,,,,,,,,,,,,,,,,,,,,,,,,,,,,,,,,,,None, mirage,"['m', 'i', 'r', 'a', 'g', 'e', 'return']","[0.3808381000999361, 0.5899443998932838, 0.6925035000313073, 0.7739128998946398, 0.9484618999995291, 1.0363567001186311, 1.1003334999550134]",,,,,,,,,,,,,,,,,,,,,,,,,,,,,,,,,,,,1,001,F,2023_Jan_31_0946,student_TT_local,2021.1.4,59.625314530267396,
,None,None,None,None,None,None,None,None,None,None,legion,subdue,19.5,20.5,video&audio/Sentence3_touch_edited.mp4,video&audio/feudal_touch_edited.mp4,matron,feudal,None,,,,,,,,,,,0,6,6,26,,,,,,,,,,,,,,,,,,,,,,,,,,,,,,,,,,,,,,,,,,,,,,,,,,,,,,,,,None, legion,"['l', 'e', 'g', 'i', 'o', 'n', 'return']","[0.4555852999910712, 0.5345481000840664, 0.7027575999964029, 0.8066725002136081, 0.8784935001749545, 1.1271503001917154, 1.3430371000431478]",,,,,,,,,,,,,,,,,,,,,,,,,,,,,,,,,,,,1,001,F,2023_Jan_31_0946,student_TT_local,2021.1.4,59.625314530267396,
,None,None,None,None,None,None,None,None,None,None,savant,cervix,19.5,20.5,video&audio/Sentence2_touch_edited.mp4,video&audio/cobble_touch_edited.mp4,export,cobble,None,,,,,,,,,,,0,7,7,19,,,,,,,,,,,,,,,,,,,,,,,,,,,,,,,,,,,,,,,,,,,,,,,,,,,,,,,,,None, savant,"['s', 'a', 'v', 'a', 'n', 't', 'return']","[0.42479029996320605, 0.49625459988601506, 0.7764708998147398, 0.8809072999283671, 1.032626299886033, 1.1766283998731524, 1.3198710000142455]",,,,,,,,,,,,,,,,,,,,,,,,,,,,,,,,,,,,1,001,F,2023_Jan_31_0946,student_TT_local,2021.1.4,59.625314530267396,
,None,None,None,None,None,None,None,None,None,None,brazen,piston,19.5,20.5,video&audio/Sentence3_touch_edited.mp4,video&audio/caviar_touch_edited.mp4,shrill,caviar,None,,,,,,,,,,,0,8,8,20,,,,,,,,,,,,,,,,,,,,,,,,,,,,,,,,,,,,,,,,,,,,,,,,,,,,,,,,,None, brazen,"['b', 'r', 'a', 'z', 'e', 'n', 'return']","[0.5288100999314338, 0.5927448000293225, 0.7130392999388278, 0.9854657999239862, 1.185893699992448, 1.2736661999952048, 1.5052702999673784]",,,,,,,,,,,,,,,,,,,,,,,,,,,,,,,,,,,,1,001,F,2023_Jan_31_0946,student_TT_local,2021.1.4,59.625314530267396,
,None,None,None,None,None,None,None,None,None,None,novice,parcel,6.5,7.5,video&audio/sentence5_TT_3X.mp4,video&audio/primal_TT_3X.mp4,entail,primal,None,,,,,,,,,,,0,9,9,4,,,,,,,,,,,,,,,,,,,,,,,,,,,,,,,,,,,,,,,,,,,,,,,,,,,,,,,,,None, novice,"['n', 'o', 'v', 'i', 'c', 'e', 'return']","[0.6501567999366671, 0.8593051999341697, 0.9785591999534518, 1.1301286998204887, 1.4182324998546392, 1.5465598998125643, 1.6424808998126537]",,,,,,,,,,,,,,,,,,,,,,,,,,,,,,,,,,,,1,001,F,2023_Jan_31_0946,student_TT_local,2021.1.4,59.625314530267396,
,None,None,None,None,None,None,None,None,None,None,quarry,covert,6.5,7.5,video&audio/sentence6_TT_3X.mp4,video&audio/patent_TT_3X.mp4,defame,patent,None,,,,,,,,,,,0,10,10,11,,,,,,,,,,,,,,,,,,,,,,,,,,,,,,,,,,,,,,,,,,,,,,,,,,,,,,,,,None, quarry,"['q', 'u', 'i', 'backspace', 'r', 'a', 'backspace', 'backspace', 'a', 'r', 'r', 'y', 'return']","[0.45616389997303486, 0.608106000116095, 0.6954509001225233, 1.079642300028354, 1.3121569999493659, 1.3915492999367416, 1.8636511999648064, 1.9920998001471162, 2.1190893999300897, 2.1914325000252575, 2.383269099984318, 3.023613299941644, 3.2636923999525607]",,,,,,,,,,,,,,,,,,,,,,,,,,,,,,,,,,,,1,001,F,2023_Jan_31_0946,student_TT_local,2021.1.4,59.625314530267396,
,"Remember to type as QUICKLY and ACCURATELY as possible after the 'get ready' prompt.

Ask the experimenter any questions now. Please put on the headphones.

You will get one practice trial. Press 'enter/return' when you are ready to start the practice.","Remember to type as QUICKLY and ACCURATELY as you can after the 'get ready' prompt.

Ask the experimenter any questions now. Please put on the headphones.

You will get one practice trial. Press 'enter/return' when you are ready to start the practice.",video&audio/Example_AOMI_total.png,1.8,0.7,None,None,None,None,None,jargon,frugal,6.5,7.5,video&audio/sentence3_TT_3X.mp4,video&audio/oppose_TT_3X.mp4,ghetto,oppose,None,,,,,,,,,,,0,11,11,2,,,,,,,,,,,,,,,,,,,,,,,,,,,,,,,,,,,,,,,,,,,,,,,,,,,,,,,,,None, jargon,"['j', 'a', 'r', 'g', 'o', 'n', 'return']","[0.4356353001203388, 0.5799650999251753, 0.6834056999068707, 0.9397901999764144, 1.0203353001270443, 1.212028499925509, 1.4436834999360144]",,,,,,,,,,,,,,,,,,,,,,,,,,,,,,,,,,,,1,001,F,2023_Jan_31_0946,student_TT_local,2021.1.4,59.625314530267396,
,None,None,None,None,None,None,None,None,None,None,fodder,devise,19.5,20.5,video&audio/Sentence1_touch_edited.mp4,video&audio/mangle_touch_edited.mp4,warble,mangle,None,,,,,,,,,,,0,12,12,24,,,,,,,,,,,,,,,,,,,,,,,,,,,,,,,,,,,,,,,,,,,,,,,,,,,,,,,,,None, fodder,"['d', 'o', 'f', 'backspace', 'backspace', 'backspace', 'f', 'o', 'd', 'd', 'e', 'r', 'return']","[0.5268409999553114, 0.6542740000877529, 1.014390500029549, 1.5904395000543445, 1.7263879999518394, 1.9746475000865757, 2.511095799971372, 2.6783447999041528, 2.7988436000887305, 2.9345758999697864, 3.14220319991, 3.1985317999497056, 3.3422674001194537]",,,,,,,,,,,,,,,,,,,,,,,,,,,,,,,,,,,,1,001,F,2023_Jan_31_0946,student_TT_local,2021.1.4,59.625314530267396,
,None,None,None,None,None,None,None,None,None,None,upkeep,kipper,19.5,20.5,video&audio/Sentence2_touch_edited.mp4,video&audio/meddle_touch_edited.mp4,divert,meddle,None,,,,,,,,,,,0,13,13,25,,,,,,,,,,,,,,,,,,,,,,,,,,,,,,,,,,,,,,,,,,,,,,,,,,,,,,,,,None, upkeep,"['u', 'p', 'k', 'e', 'e', 'p', 'return']","[0.880577300209552, 1.0721816001459956, 1.3844110001809895, 1.4640014001633972, 1.6163712001871318, 1.8079988001845777, 2.064017000142485]",,,,,,,,,,,,,,,,,,,,,,,,,,,,,,,,,,,,1,001,F,2023_Jan_31_0946,student_TT_local,2021.1.4,59.625314530267396,
,None,None,None,None,None,None,None,None,None,None,convoy,plasma,19.5,20.5,video&audio/Sentence5_touch_edited.mp4,video&audio/jailer_touch_edited.mp4,nettle,jailer,None,,,,,,,,,,,0,14,14,16,,,,,,,,,,,,,,,,,,,,,,,,,,,,,,,,,,,,,,,,,,,,,,,,,,,,,,,,,None, convoy,"['c', 'o', 'n', 'v', 'o', 'y', 'return']","[0.6124713001772761, 0.6924104001373053, 0.7885050000622869, 0.9565677000209689, 1.0374283001292497, 1.2603864001575857, 1.4527195000555366]",,,,,,,,,,,,,,,,,,,,,,,,,,,,,,,,,,,,1,001,F,2023_Jan_31_0946,student_TT_local,2021.1.4,59.625314530267396,
,None,None,None,None,None,None,None,None,None,None,strife,tariff,6.5,7.5,video&audio/sentence2_TT_3X.mp4,video&audio/delude_TT_3X.mp4,galley,delude,None,,,,,,,,,,,0,15,15,7,,,,,,,,,,,,,,,,,,,,,,,,,,,,,,,,,,,,,,,,,,,,,,,,,,,,,,,,,None, strife,"['s', 't', 'r', 'i', 'f', 'e', 'return']","[0.5287393000908196, 0.6724046999588609, 0.696429600007832, 1.1848045999649912, 1.3050166999455541, 1.3766558999195695, 1.496678699972108]",,,,,,,,,,,,,,,,,,,,,,,,,,,,,,,,,,,,1,001,F,2023_Jan_31_0946,student_TT_local,2021.1.4,59.625314530267396,
,None,None,None,None,None,None,None,None,None,None,revolt,virile,6.5,7.5,video&audio/sentence6_TT_3X.mp4,video&audio/joiner_TT_3X.mp4,apathy,joiner,None,,,,,,,,,,,0,16,16,5,,,,,,,,,,,,,,,,,,,,,,,,,,,,,,,,,,,,,,,,,,,,,,,,,,,,,,,,,None, recolt,"['r', 'e', 'c', 'o', 'l', 't', 'return']","[0.4584818999283016, 0.5218690999317914, 0.7458943999372423, 0.8263103999197483, 0.9944325999822468, 1.0821783000137657, 1.2019801000133157]",,,,,,,,,,,,,,,,,,,,,,,,,,,,,,,,,,,,1,001,F,2023_Jan_31_0946,student_TT_local,2021.1.4,59.625314530267396,
,None,None,None,None,None,None,None,None,None,None,potent,neural,6.5,7.5,video&audio/sentence2_TT_3X.mp4,video&audio/septic_TT_3X.mp4,ordain,septic,None,,,,,,,,,,,0,17,17,13,,,,,,,,,,,,,,,,,,,,,,,,,,,,,,,,,,,,,,,,,,,,,,,,,,,,,,,,,None, potent,"['p', 'o', 't', 'e', 'n', 't', 'return']","[0.7061223001219332, 0.801444300217554, 0.9054264000151306, 0.9615496001206338, 1.082084600115195, 1.177794000133872, 1.3071046001277864]",,,,,,,,,,,,,,,,,,,,,,,,,,,,,,,,,,,,1,001,F,2023_Jan_31_0946,student_TT_local,2021.1.4,59.625314530267396,
,None,None,None,None,None,None,None,None,None,None,binder,forage,19.5,20.5,video&audio/Sentence6_touch_edited.mp4,video&audio/campus_touch_edited.mp4,allure,campus,None,,,,,,,,,,,0,18,18,29,,,,,,,,,,,,,,,,,,,,,,,,,,,,,,,,,,,,,,,,,,,,,,,,,,,,,,,,,None, binder,"['b', 'i', 'n', 'd', 'e', 'r', 'return']","[0.3359720001462847, 0.5358309000730515, 0.6082870000973344, 0.7206594999879599, 1.0318917999975383, 1.0957858001347631, 1.2561793001368642]",,,,,,,,,,,,,,,,,,,,,,,,,,,,,,,,,,,,1,001,F,2023_Jan_31_0946,student_TT_local,2021.1.4,59.625314530267396,
,None,None,None,None,None,None,None,None,None,None,manure,picket,19.5,20.5,video&audio/Sentence5_touch_edited.mp4,video&audio/parish_touch_edited.mp4,gullet,parish,None,,,,,,,,,,,0,19,19,28,,,,,,,,,,,,,,,,,,,,,,,,,,,,,,,,,,,,,,,,,,,,,,,,,,,,,,,,,None, manure,"['m', 'a', 'n', 'u', 'r', 'e', 'return']","[0.3517291999887675, 0.44105940009467304, 0.6960235000588, 0.8802217000629753, 0.9280835001263767, 0.9837136999703944, 1.1443741999100894]",,,,,,,,,,,,,,,,,,,,,,,,,,,,,,,,,,,,1,001,F,2023_Jan_31_0946,student_TT_local,2021.1.4,59.625314530267396,
,None,None,None,None,None,None,None,None,None,None,infirm,pulpit,6.5,7.5,video&audio/sentence4_TT_3X.mp4,video&audio/oblige_TT_3X.mp4,mystic,oblige,None,,,,,,,,,,,0,20,20,3,,,,,,,,,,,,,,,,,,,,,,,,,,,,,,,,,,,,,,,,,,,,,,,,,,,,,,,,,None, infirm,"['i', 'n', 'f', 'i', 'r', 'm', 'return']","[0.3307829999830574, 0.3950710000935942, 0.4666522000916302, 0.643548000138253, 0.7069555001799017, 0.9150525000877678, 1.1389157001394778]",,,,,,,,,,,,,,,,,,,,,,,,,,,,,,,,,,,,1,001,F,2023_Jan_31_0946,student_TT_local,2021.1.4,59.625314530267396,
,"While you watch the video, imagine yourself typing the word on the screen, like how you did in the imagery practice. While you watch the video and imagine this, rest your hands on your keyboard but DO NOT type until AFTER you see the typing prompt.

Press 'enter/return' to go to the next page.","While watching the video, imagine yourself typing the word on the screen, like how you did in the imagery practice. While you watch the video and imagine this, rest your hands on your keyboard but DO NOT type until AFTER you see the typing prompt.

Press 'enter/return' to go to the next page.",video&audio/Example_AOMI_imagine.png,1.6,1,butter,6.5,7.5,video&audio/amount_TT_3X.mp4,video&audio/butter_TT_3X.mp4,plight,ascend,6.5,7.5,video&audio/sentence2_TT_3X.mp4,video&audio/metric_TT_3X.mp4,eatery,metric,2 = AOMIspec,,,,,,,,,,,0,21,21,1,,,,,,,,,,,,,,,,,,,,,,,,,,,,,,,,,,,,,,,,,,,,,,,,,,,,,,,,,"['p', 'l']", plight,"['p', 'l', 'i', 'g', 'h', 't', 'return']","[0.43154499982483685, 0.512111600022763, 1.1515095999930054, 1.2554687999654561, 1.3839404999744147, 1.5284831998869777, 1.6243967998307198]","[2.523698099888861, 2.571555000031367]",,,,,,,,,,,,,,,,,,,,,,,,,,,,,,,,,,,1,001,F,2023_Jan_31_0946,student_TT_local,2021.1.4,59.625314530267396,
,None,None,None,None,None,None,None,None,None,None,critic,obsess,6.5,7.5,video&audio/sentence5_TT_3X.mp4,video&audio/zephyr_TT_3X.mp4,fusion,zephyr,None,,,,,,,,,,,0,22,22,10,,,,,,,,,,,,,,,,,,,,,,,,,,,,,,,,,,,,,,,,,,,,,,,,,,,,,,,,,None, critic,"['c', 'r', 'i', 't', 'i', 'c', 'return']","[0.43677829997614026, 0.653267600107938, 0.7244074000045657, 0.8443716000765562, 1.0049748001620173, 1.2126313999760896, 1.3243349001277238]",,,,,,,,,,,,,,,,,,,,,,,,,,,,,,,,,,,,1,001,F,2023_Jan_31_0946,student_TT_local,2021.1.4,59.625314530267396,
,None,None,None,None,None,None,None,None,None,None,goblet,botany,19.5,20.5,video&audio/Sentence4_touch_edited.mp4,video&audio/trench_touch_edited.mp4,ethnic,trench,None,,,,,,,,,,,0,23,23,27,,,,,,,,,,,,,,,,,,,,,,,,,,,,,,,,,,,,,,,,,,,,,,,,,,,,,,,,,None, goblet,"['g', 'o', 'b', 'l', 'e', 't', 'return']","[0.366860399954021, 0.47053970000706613, 0.8473328999243677, 0.9427856998518109, 1.150595699902624, 1.1991283998358995, 1.3187422999180853]",,,,,,,,,,,,,,,,,,,,,,,,,,,,,,,,,,,,1,001,F,2023_Jan_31_0946,student_TT_local,2021.1.4,59.625314530267396,
,None,None,None,None,None,None,None,None,None,None,murmur,ritual,19.5,20.5,video&audio/Sentence6_touch_edited.mp4,video&audio/clergy_touch_edited.mp4,portal,clergy,None,,,,,,,,,,,0,24,24,17,,,,,,,,,,,,,,,,,,,,,,,,,,,,,,,,,,,,,,,,,,,,,,,,,,,,,,,,,None, murmur,"['m', 'u', 'r', 'u', 'backspace', 'm', 'u', 'r', 'return']","[0.3741403999738395, 0.647718699881807, 0.7501738998107612, 0.8706663998309523, 1.382334099849686, 1.6862430998589844, 1.9107299998868257, 2.006829099962488, 2.1581142998766154]",,,,,,,,,,,,,,,,,,,,,,,,,,,,,,,,,,,,1,001,F,2023_Jan_31_0946,student_TT_local,2021.1.4,59.625314530267396,
,None,None,None,None,None,None,None,None,None,None,coerce,falter,19.5,20.5,video&audio/Sentence4_touch_edited.mp4,video&audio/tandem_touch_edited.mp4,origin,tandem,None,,,,,,,,,,,0,25,25,15,,,,,,,,,,,,,,,,,,,,,,,,,,,,,,,,,,,,,,,,,,,,,,,,,,,,,,,,,None, coerce,"['c', 'o', 'e', 'r', 'c', 'e', 'return']","[1.274197000078857, 1.3863311000168324, 1.64295220002532, 2.1305851000361145, 2.418066400103271, 2.4899296001531184, 2.6020947999786586]",,,,,,,,,,,,,,,,,,,,,,,,,,,,,,,,,,,,1,001,F,2023_Jan_31_0946,student_TT_local,2021.1.4,59.625314530267396,
,None,None,None,None,None,None,None,None,None,None,sherry,jackal,6.5,7.5,video&audio/sentence4_TT_3X.mp4,video&audio/hamlet_TT_3X.mp4,shroud,hamlet,None,,,,,,,,,,,0,26,26,9,,,,,,,,,,,,,,,,,,,,,,,,,,,,,,,,,,,,,,,,,,,,,,,,,,,,,,,,,None, sherry,"['s', 'h', 'e', 'r', 'r', 'y', 'return']","[0.593200100120157, 0.6880185001064092, 0.8405379999894649, 0.9279710999689996, 1.112805499928072, 1.5604419999290258, 1.800177900120616]",,,,,,,,,,,,,,,,,,,,,,,,,,,,,,,,,,,,1,001,F,2023_Jan_31_0946,student_TT_local,2021.1.4,59.625314530267396,
,None,None,None,None,None,None,None,None,None,None,pursue,debtor,19.5,20.5,video&audio/Sentence1_touch_edited.mp4,video&audio/output_touch_edited.mp4,uphold,output,None,,,,,,,,,,,0,27,27,18,,,,,,,,,,,,,,,,,,,,,,,,,,,,,,,,,,,,,,,,,,,,,,,,,,,,,,,,,None, pursure,"['p', 'u', 'r', 's', 'u', 'r', 'e', 'return']","[0.6685637000482529, 0.7884994000196457, 0.9324708001222461, 1.132729500066489, 1.2521796999499202, 1.357835000148043, 1.4364112000912428, 1.476234900066629]",,,,,,,,,,,,,,,,,,,,,,,,,,,,,,,,,,,,1,001,F,2023_Jan_31_0946,student_TT_local,2021.1.4,59.625314530267396,
,None,None,None,None,None,None,None,None,None,None,impose,belfry,19.5,20.5,video&audio/Sentence6_touch_edited.mp4,video&audio/girdle_touch_edited.mp4,linear,girdle,None,,,,,,,,,,,0,28,28,23,,,,,,,,,,,,,,,,,,,,,,,,,,,,,,,,,,,,,,,,,,,,,,,,,,,,,,,,,None, impose,"['i', 'm', 'p', 'o', 's', 'e', 'return']","[0.4782250998541713, 0.5578354999888688, 0.8624948998913169, 1.1582922998350114, 1.2388431997969747, 1.2781615999992937, 1.4301454999949783]",,,,,,,,,,,,,,,,,,,,,,,,,,,,,,,,,,,,1,001,F,2023_Jan_31_0946,student_TT_local,2021.1.4,59.625314530267396,
,None,None,None,None,None,None,None,None,None,None,musket,subtle,19.5,20.5,video&audio/Sentence5_touch_edited.mp4,video&audio/fungal_touch_edited.mp4,mucous,fungal,None,,,,,,,,,,,0,29,29,22,,,,,,,,,,,,,,,,,,,,,,,,,,,,,,,,,,,,,,,,,,,,,,,,,,,,,,,,,None, musket,"['m', 'u', 's', 'k', 'e', 't', 'return']","[0.596904399804771, 0.8610614999197423, 0.9327424999792129, 1.0847546998411417, 1.1969583998434246, 1.2685088999569416, 1.4130688000004739]",,,,,,,,,,,,,,,,,,,,,,,,,,,,,,,,,,,,1,001,F,2023_Jan_31_0946,student_TT_local,2021.1.4,59.625314530267396,
,,,,,,,,,,,,,,,,,,,,typingRatingScale.png,"How would you rate your typing performance in the previous section?

Press a number on your keyboard according to the rating scale below to give your answer. Your first answer will be accepted.",,,,,,,,,,,,,0,0,0,0,,,,,,,,,,,,,,,,,,,,,,,,,,,,,,,,,,,,,,,,,,,,,,,,,,,,,,,,,,['3'],[25.766277800081298],,,,,,,,,,,,,,,,,,,,,,,,,,,,,,,,,1,001,F,2023_Jan_31_0946,student_TT_local,2021.1.4,59.625314530267396,
,,,,,,,,,,,,,,,,,,,,imageryCheckScale.png,"In the previous section did you imagine yourself typing?

Press a number on your keyboard according to the rating scale below to give your answer. Your first answer will be accepted.",,,,,,,,,,,,,0,1,1,1,,,,,,,,,,,,,,,,,,,,,,,,,,,,,,,,,,,,,,,,,,,,,,,,,,,,,,,,,,['3'],[9.541982300113887],,,,,,,,,,,,,,,,,,,,,,,,,,,,,,,,,1,001,F,2023_Jan_31_0946,student_TT_local,2021.1.4,59.625314530267396,
,None,None,None,None,None,None,None,None,None,None,strife,tariff,6.5,7.5,video&audio/sentence2_TT_3X.mp4,video&audio/delude_TT_3X.mp4,galley,delude,None,,,,,,,,,,,,,,,,,,,,,,,,,,,0,0,0,7,,,,,,,,,,,,,,,,,,,,,,,,,,,,,,,,,,,,,,,,,,,,,,,,None,None,"['b', 'u', 't', 't', 'e', 'r', 'return']","[0.9569625000003725, 1.0367193999700248, 1.1806420998182148, 1.3481232000049204, 1.5089445000048727, 1.5805340998340398, 1.6763456999324262]",None, galley,"['g', 'a', 'l', 'l', 'e', 'y', 'return']","[0.6636193001177162, 0.7589608000125736, 0.919312700163573, 1.1109277999494225, 1.3754612000193447, 1.4795208000577986, 1.879093399969861]",,,,,,,,,,,,,,,,,,,,,,,,,1,001,F,2023_Jan_31_0946,student_TT_local,2021.1.4,59.625314530267396,
,"This is Section 2.

In this section, your task will be the same as before - that is, to type the word you see on the screen AFTER the typing prompt. However, rather than just seeing the word before typing, you will also see a video of someone typing different words to what you will need to type at different speeds. 

Press 'enter/return' to go to the next page.","This is Section 4. 

In this section, your task will be the same as before - that is, to type the word you see on the screen after the typing prompt. You will see a video again, like in Section 2, only this time, the video will show someone the same word that you must type at different speeds. 

Press 'enter/return' to go to the next page.",video&audio/Example_AOMI_layout.png,1.6,0.6,afford,19.5,20.5,video&audio/amount_touch_edited.mp4,video&audio/afford_touch_edited.mp4,vanity,matrix,6.5,7.5,video&audio/sentence1_TT_3X.mp4,video&audio/hinder_TT_3X.mp4,breach,hinder,1 = AOMIgen,,,,,,,,,,,,,,,,,,,,,,,,,,,0,1,1,0,,,,,,,,,,,,,,,,,,,,,,,,,,,,,,,,,,,,,,,,,,,,,,,,,None,,,None, breach,"['b', 'r', 'e', 'a', 'c', 'h', 'return']","[0.6746443000156432, 0.777736600022763, 0.8418837999925017, 0.9692619000561535, 1.1690465998835862, 1.2575145999435335, 1.4731447000522166]",,,,,,,,,,,,,,,,,,,,,,,,,1,001,F,2023_Jan_31_0946,student_TT_local,2021.1.4,59.625314530267396,
,None,None,None,None,None,None,None,None,None,None,binder,forage,19.5,20.5,video&audio/Sentence6_touch_edited.mp4,video&audio/campus_touch_edited.mp4,allure,campus,None,,,,,,,,,,,,,,,,,,,,,,,,,,,0,2,2,29,,,,,,,,,,,,,,,,,,,,,,,,,,,,,,,,,,,,,,,,,,,,,,,,,None,,,None, allure,"['a', 'l', 'l', 'r', 'backspace', 'u', 'r', 'e', 'return']","[0.4757800998631865, 0.603534399997443, 0.7636605999432504, 1.0512250999454409, 1.5230862000025809, 2.123468999983743, 2.2911686999723315, 2.4191419000271708, 2.739163199905306]",,,,,,,,,,,,,,,,,,,,,,,,,1,001,F,2023_Jan_31_0946,student_TT_local,2021.1.4,59.625314530267396,
,None,None,None,None,None,None,None,None,None,None,sherry,jackal,6.5,7.5,video&audio/sentence4_TT_3X.mp4,video&audio/hamlet_TT_3X.mp4,shroud,hamlet,None,,,,,,,,,,,,,,,,,,,,,,,,,,,0,3,3,9,,,,,,,,,,,,,,,,,,,,,,,,,,,,,,,,,,,,,,,,,,,,,,,,,None,,,None, shroud,"['s', 'h', 'r', 'o', 'u', 'd', 'return']","[0.6520794001407921, 0.7720043000299484, 0.9160370000172406, 1.027760500088334, 1.0917122000828385, 1.3396918000653386, 1.4362588000949472]",,,,,,,,,,,,,,,,,,,,,,,,,1,001,F,2023_Jan_31_0946,student_TT_local,2021.1.4,59.625314530267396,
,None,None,None,None,None,None,None,None,None,None,impose,belfry,19.5,20.5,video&audio/Sentence6_touch_edited.mp4,video&audio/girdle_touch_edited.mp4,linear,girdle,None,,,,,,,,,,,,,,,,,,,,,,,,,,,0,4,4,23,,,,,,,,,,,,,,,,,,,,,,,,,,,,,,,,,,,,,,,,,,,,,,,,,None,,,None, linear,"['l', 'i', 'n', 'e', 'a', 'r', 'return']","[0.684895999962464, 0.9014423000626266, 1.149118300061673, 1.2528011000249535, 1.3410760001279414, 1.3811908999923617, 1.548785800114274]",,,,,,,,,,,,,,,,,,,,,,,,,1,001,F,2023_Jan_31_0946,student_TT_local,2021.1.4,59.625314530267396,
,None,None,None,None,None,None,None,None,None,None,coerce,falter,19.5,20.5,video&audio/Sentence4_touch_edited.mp4,video&audio/tandem_touch_edited.mp4,origin,tandem,None,,,,,,,,,,,,,,,,,,,,,,,,,,,0,5,5,15,,,,,,,,,,,,,,,,,,,,,,,,,,,,,,,,,,,,,,,,,,,,,,,,,None,,,None, origin,"['o', 'r', 'i', 'g', 'i', 'n', 'return']","[1.057095699943602, 1.1771609999705106, 1.3288992999587208, 1.921424400061369, 2.145174799952656, 2.2808791999705136, 2.5847914998885244]",,,,,,,,,,,,,,,,,,,,,,,,,1,001,F,2023_Jan_31_0946,student_TT_local,2021.1.4,59.625314530267396,
,None,None,None,None,None,None,None,None,None,None,deduct,hippie,6.5,7.5,video&audio/sentence3_TT_3X.mp4,video&audio/hearth_TT_3X.mp4,herbal,hearth,None,,,,,,,,,,,,,,,,,,,,,,,,,,,0,6,6,14,,,,,,,,,,,,,,,,,,,,,,,,,,,,,,,,,,,,,,,,,,,,,,,,,None,,,None, herbal,"['h', 'e', 'r', 'b', 'a', 'l', 'return']","[0.8221342000178993, 0.9190346000250429, 0.9818822999950498, 1.0942170000635087, 1.2226676000282168, 2.0297858000267297, 2.3024299000389874]",,,,,,,,,,,,,,,,,,,,,,,,,1,001,F,2023_Jan_31_0946,student_TT_local,2021.1.4,59.625314530267396,
,"Remember to type as QUICKLY and ACCURATELY as possible after the 'get ready' prompt.

Ask the experimenter any questions now. Please put on the headphones.

You will get one practice trial. Press 'enter/return' when you are ready to start the practice.","Remember to type as QUICKLY and ACCURATELY as you can after the 'get ready' prompt.

Ask the experimenter any questions now. Please put on the headphones.

You will get one practice trial. Press 'enter/return' when you are ready to start the practice.",video&audio/Example_AOMI_total.png,1.8,0.7,None,None,None,None,None,jargon,frugal,6.5,7.5,video&audio/sentence3_TT_3X.mp4,video&audio/oppose_TT_3X.mp4,ghetto,oppose,None,,,,,,,,,,,,,,,,,,,,,,,,,,,0,7,7,2,,,,,,,,,,,,,,,,,,,,,,,,,,,,,,,,,,,,,,,,,,,,,,,,,None,,,None, ghetto,"['g', 'h', 'e', 't', 't', 'o', 'return']","[0.4362594000995159, 0.5474745999090374, 0.7476592001039535, 0.8917193999513984, 1.035516700008884, 1.2919056999962777, 1.5635428000241518]",,,,,,,,,,,,,,,,,,,,,,,,,1,001,F,2023_Jan_31_0946,student_TT_local,2021.1.4,59.625314530267396,
,None,None,None,None,None,None,None,None,None,None,critic,obsess,6.5,7.5,video&audio/sentence5_TT_3X.mp4,video&audio/zephyr_TT_3X.mp4,fusion,zephyr,None,,,,,,,,,,,,,,,,,,,,,,,,,,,0,8,8,10,,,,,,,,,,,,,,,,,,,,,,,,,,,,,,,,,,,,,,,,,,,,,,,,,None,,,None, fusion,"['f', 'u', 's', 'i', 'o', 'n', 'return']","[0.6102690999396145, 0.706489099888131, 0.8265134000685066, 1.1297126999124885, 1.1933554999995977, 1.457992000039667, 1.6493412998970598]",,,,,,,,,,,,,,,,,,,,,,,,,1,001,F,2023_Jan_31_0946,student_TT_local,2021.1.4,59.625314530267396,
,None,None,None,None,None,None,None,None,None,None,savant,cervix,19.5,20.5,video&audio/Sentence2_touch_edited.mp4,video&audio/cobble_touch_edited.mp4,export,cobble,None,,,,,,,,,,,,,,,,,,,,,,,,,,,0,9,9,19,,,,,,,,,,,,,,,,,,,,,,,,,,,,,,,,,,,,,,,,,,,,,,,,,None,,,None, export,"['e', 'x', 'p', 'o', 'r', 't', 'return']","[0.9658248999621719, 1.533367200056091, 1.9410441999789327, 2.053899799939245, 2.157023699954152, 2.213086900068447, 2.444906600052491]",,,,,,,,,,,,,,,,,,,,,,,,,1,001,F,2023_Jan_31_0946,student_TT_local,2021.1.4,59.625314530267396,
,None,None,None,None,None,None,None,None,None,None,pursue,debtor,19.5,20.5,video&audio/Sentence1_touch_edited.mp4,video&audio/output_touch_edited.mp4,uphold,output,None,,,,,,,,,,,,,,,,,,,,,,,,,,,0,10,10,18,,,,,,,,,,,,,,,,,,,,,,,,,,,,,,,,,,,,,,,,,,,,,,,,,None,,,None, uphold,"['u', 'p', 'h', 'o', 'l', 'd', 'return']","[1.262059799861163, 1.4545761998742819, 2.5180169998202473, 2.59820539993234, 2.78195169987157, 2.894229299854487, 3.078753300011158]",,,,,,,,,,,,,,,,,,,,,,,,,1,001,F,2023_Jan_31_0946,student_TT_local,2021.1.4,59.625314530267396,
,None,None,None,None,None,None,None,None,None,None,sonnet,confer,6.5,7.5,video&audio/sentence1_TT_3X.mp4,video&audio/innate_TT_3X.mp4,tamper,innate,None,,,,,,,,,,,,,,,,,,,,,,,,,,,0,11,11,12,,,,,,,,,,,,,,,,,,,,,,,,,,,,,,,,,,,,,,,,,,,,,,,,,None,,,None, tamper,"['t', 'a', 'm', 'p', 'e', 'r', 'return']","[0.6496228999458253, 0.6976350999902934, 0.8743717998731881, 1.1216406000312418, 1.185683700023219, 1.2579248999245465, 1.394183399854228]",,,,,,,,,,,,,,,,,,,,,,,,,1,001,F,2023_Jan_31_0946,student_TT_local,2021.1.4,59.625314530267396,
,None,None,None,None,None,None,None,None,None,None,manure,picket,19.5,20.5,video&audio/Sentence5_touch_edited.mp4,video&audio/parish_touch_edited.mp4,gullet,parish,None,,,,,,,,,,,,,,,,,,,,,,,,,,,0,12,12,28,,,,,,,,,,,,,,,,,,,,,,,,,,,,,,,,,,,,,,,,,,,,,,,,,None,,,None, gullet,"['g', 'u', 'l', 'l', 'e', 't', 'return']","[0.6764897999819368, 0.7645032000727952, 1.9484830000437796, 2.0687939999625087, 2.180461599957198, 2.2528558999765664, 2.349440700141713]",,,,,,,,,,,,,,,,,,,,,,,,,1,001,F,2023_Jan_31_0946,student_TT_local,2021.1.4,59.625314530267396,
,None,None,None,None,None,None,None,None,None,None,fodder,devise,19.5,20.5,video&audio/Sentence1_touch_edited.mp4,video&audio/mangle_touch_edited.mp4,warble,mangle,None,,,,,,,,,,,,,,,,,,,,,,,,,,,0,13,13,24,,,,,,,,,,,,,,,,,,,,,,,,,,,,,,,,,,,,,,,,,,,,,,,,,None,,,None, warble,"['w', 'a', 'r', 'l', 'backspace', 'b', 'l', 'e', 'return']","[0.5382244000211358, 0.6101734000258148, 0.9216569000855088, 1.0497071000281721, 1.6106261000968516, 1.9298825000878423, 2.0978727999608964, 2.5296126001048833, 2.6657637001480907]",,,,,,,,,,,,,,,,,,,,,,,,,1,001,F,2023_Jan_31_0946,student_TT_local,2021.1.4,59.625314530267396,
,None,None,None,None,None,None,None,None,None,None,brazen,piston,19.5,20.5,video&audio/Sentence3_touch_edited.mp4,video&audio/caviar_touch_edited.mp4,shrill,caviar,None,,,,,,,,,,,,,,,,,,,,,,,,,,,0,14,14,20,,,,,,,,,,,,,,,,,,,,,,,,,,,,,,,,,,,,,,,,,,,,,,,,,None,,,None, shrill,"['s', 'h', 'r', 'i', 'l', 'l', 'return']","[0.6150563999544829, 0.7829261000733823, 0.9363098999019712, 1.0310831000097096, 1.2790524999145418, 1.3830625999253243, 1.6311369000468403]",,,,,,,,,,,,,,,,,,,,,,,,,1,001,F,2023_Jan_31_0946,student_TT_local,2021.1.4,59.625314530267396,
,None,None,None,None,None,None,None,None,None,None,goblet,botany,19.5,20.5,video&audio/Sentence4_touch_edited.mp4,video&audio/trench_touch_edited.mp4,ethnic,trench,None,,,,,,,,,,,,,,,,,,,,,,,,,,,0,15,15,27,,,,,,,,,,,,,,,,,,,,,,,,,,,,,,,,,,,,,,,,,,,,,,,,,None,,,None, ethnic,"['e', 't', 'h', 'n', 'i', 'c', 'return']","[0.6197810999583453, 0.699884400004521, 0.8122532998677343, 1.0601874999701977, 1.1484810998663306, 1.236102799884975, 1.3963158999104053]",,,,,,,,,,,,,,,,,,,,,,,,,1,001,F,2023_Jan_31_0946,student_TT_local,2021.1.4,59.625314530267396,
,None,None,None,None,None,None,None,None,None,None,musket,subtle,19.5,20.5,video&audio/Sentence5_touch_edited.mp4,video&audio/fungal_touch_edited.mp4,mucous,fungal,None,,,,,,,,,,,,,,,,,,,,,,,,,,,0,16,16,22,,,,,,,,,,,,,,,,,,,,,,,,,,,,,,,,,,,,,,,,,,,,,,,,,None,,,None, mucous,"['n', 'backspace', 'm', 'u', 'c', 'o', 'u', 's', 'return']","[0.7281772999558598, 1.816114200046286, 2.328211599960923, 2.4961422998458147, 2.6410141999367625, 2.7281980998814106, 2.8158933999948204, 2.95307489996776, 3.032216199906543]",,,,,,,,,,,,,,,,,,,,,,,,,1,001,F,2023_Jan_31_0946,student_TT_local,2021.1.4,59.625314530267396,
,None,None,None,None,None,None,None,None,None,None,potent,neural,6.5,7.5,video&audio/sentence2_TT_3X.mp4,video&audio/septic_TT_3X.mp4,ordain,septic,None,,,,,,,,,,,,,,,,,,,,,,,,,,,0,17,17,13,,,,,,,,,,,,,,,,,,,,,,,,,,,,,,,,,,,,,,,,,,,,,,,,,None,,,None, ordain,"['o', 'r', 'd', 'a', 'i', 'n', 'return']","[0.7346137000713497, 0.9427454001270235, 1.1345261000096798, 1.2555097001604736, 1.3346270001493394, 1.3906507000792772, 1.598618800053373]",,,,,,,,,,,,,,,,,,,,,,,,,1,001,F,2023_Jan_31_0946,student_TT_local,2021.1.4,59.625314530267396,
,None,None,None,None,None,None,None,None,None,None,novice,parcel,6.5,7.5,video&audio/sentence5_TT_3X.mp4,video&audio/primal_TT_3X.mp4,entail,primal,None,,,,,,,,,,,,,,,,,,,,,,,,,,,0,18,18,4,,,,,,,,,,,,,,,,,,,,,,,,,,,,,,,,,,,,,,,,,,,,,,,,,None,,,None, entail,"['e', 'n', 't', 'a', 'i', 'l', 'return']","[0.7012269999831915, 0.8377582998946309, 0.9248877998907119, 1.0536505000200123, 1.1172776001039892, 1.3727768999524415, 1.7087499999906868]",,,,,,,,,,,,,,,,,,,,,,,,,1,001,F,2023_Jan_31_0946,student_TT_local,2021.1.4,59.625314530267396,
,None,None,None,None,None,None,None,None,None,None,quarry,covert,6.5,7.5,video&audio/sentence6_TT_3X.mp4,video&audio/patent_TT_3X.mp4,defame,patent,None,,,,,,,,,,,,,,,,,,,,,,,,,,,0,19,19,11,,,,,,,,,,,,,,,,,,,,,,,,,,,,,,,,,,,,,,,,,,,,,,,,,None,,,None, defame,"['d', 'e', 'f', 'a', 'm', 'e', 'return']","[0.4362852999474853, 0.6197033000644296, 0.8280170001089573, 0.9317997000180185, 1.021340300096199, 1.1801471000071615, 1.2997840999159962]",,,,,,,,,,,,,,,,,,,,,,,,,1,001,F,2023_Jan_31_0946,student_TT_local,2021.1.4,59.625314530267396,
,"While you watch the video, imagine yourself typing the word on the screen, like how you did in the imagery practice. While you watch the video and imagine this, rest your hands on your keyboard but DO NOT type until AFTER you see the typing prompt.

Press 'enter/return' to go to the next page.","While watching the video, imagine yourself typing the word on the screen, like how you did in the imagery practice. While you watch the video and imagine this, rest your hands on your keyboard but DO NOT type until AFTER you see the typing prompt.

Press 'enter/return' to go to the next page.",video&audio/Example_AOMI_imagine.png,1.6,1,butter,6.5,7.5,video&audio/amount_TT_3X.mp4,video&audio/butter_TT_3X.mp4,plight,ascend,6.5,7.5,video&audio/sentence2_TT_3X.mp4,video&audio/metric_TT_3X.mp4,eatery,metric,2 = AOMIspec,,,,,,,,,,,,,,,,,,,,,,,,,,,0,20,20,1,,,,,,,,,,,,,,,,,,,,,,,,,,,,,,,,,,,,,,,,,,,,,,,,,None,,,None, eatery,"['e', 'a', 't', 'e', 'r', 'y', 'return']","[0.7251805998384953, 0.8457499998621643, 0.9168900998774916, 1.093489799881354, 1.1647298999596387, 1.3568833000026643, 1.5649520999286324]",,,,,,,,,,,,,,,,,,,,,,,,,1,001,F,2023_Jan_31_0946,student_TT_local,2021.1.4,59.625314530267396,
,None,None,None,None,None,None,None,None,None,None,legion,subdue,19.5,20.5,video&audio/Sentence3_touch_edited.mp4,video&audio/feudal_touch_edited.mp4,matron,feudal,None,,,,,,,,,,,,,,,,,,,,,,,,,,,0,21,21,26,,,,,,,,,,,,,,,,,,,,,,,,,,,,,,,,,,,,,,,,,,,,,,,,,None,,,None, matron,"['m', 'a', 't', 'r', 'o', 'n', 'return']","[0.8976249000988901, 1.0099414999131113, 1.15364779997617, 1.2091548000462353, 1.3213534001260996, 1.3698044999036938, 1.5770882000215352]",,,,,,,,,,,,,,,,,,,,,,,,,1,001,F,2023_Jan_31_0946,student_TT_local,2021.1.4,59.625314530267396,
,None,None,None,None,None,None,None,None,None,None,convoy,plasma,19.5,20.5,video&audio/Sentence5_touch_edited.mp4,video&audio/jailer_touch_edited.mp4,nettle,jailer,None,,,,,,,,,,,,,,,,,,,,,,,,,,,0,22,22,16,,,,,,,,,,,,,,,,,,,,,,,,,,,,,,,,,,,,,,,,,,,,,,,,,None,,,None, nettle,"['n', 'e', 't', 't', 'l', 'e', 'return']","[0.7686034999787807, 0.8969777999445796, 0.960773800034076, 1.104493899969384, 1.544907300034538, 1.6249224999919534, 1.7685597999952734]",,,,,,,,,,,,,,,,,,,,,,,,,1,001,F,2023_Jan_31_0946,student_TT_local,2021.1.4,59.625314530267396,
,None,None,None,None,None,None,None,None,None,None,satire,cortex,19.5,20.5,video&audio/Sentence4_touch_edited.mp4,video&audio/induce_touch_edited.mp4,mussel,induce,None,,,,,,,,,,,,,,,,,,,,,,,,,,,0,23,23,21,,,,,,,,,,,,,,,,,,,,,,,,,,,,,,,,,,,,,,,,,,,,,,,,,None,,,None, mussel,"['m', 'u', 's', 's', 'e', 'l', 'return']","[0.8317881999537349, 0.9438982999417931, 1.072082499973476, 1.2564751000609249, 1.3368818999733776, 1.4084300000686198, 1.6562083999160677]",,,,,,,,,,,,,,,,,,,,,,,,,1,001,F,2023_Jan_31_0946,student_TT_local,2021.1.4,59.625314530267396,
,None,None,None,None,None,None,None,None,None,None,revolt,virile,6.5,7.5,video&audio/sentence6_TT_3X.mp4,video&audio/joiner_TT_3X.mp4,apathy,joiner,None,,,,,,,,,,,,,,,,,,,,,,,,,,,0,24,24,5,,,,,,,,,,,,,,,,,,,,,,,,,,,,,,,,,,,,,,,,,,,,,,,,,None,,,None, apathy,"['a', 'p', 'a', 't', 'h', 'y', 'return']","[0.6916978999506682, 0.8116305000148714, 0.9401066999416798, 1.1475172999780625, 1.1800339999608696, 1.4115015000570565, 1.6041562999598682]",,,,,,,,,,,,,,,,,,,,,,,,,1,001,F,2023_Jan_31_0946,student_TT_local,2021.1.4,59.625314530267396,
,None,None,None,None,None,None,None,None,None,None,murmur,ritual,19.5,20.5,video&audio/Sentence6_touch_edited.mp4,video&audio/clergy_touch_edited.mp4,portal,clergy,None,,,,,,,,,,,,,,,,,,,,,,,,,,,0,25,25,17,,,,,,,,,,,,,,,,,,,,,,,,,,,,,,,,,,,,,,,,,,,,,,,,,None,,,None, portal,"['p', 'o', 'r', 't', 'a', 'k', 'backspace', 'l', 'return']","[0.7347752000205219, 0.8468171998392791, 0.9349524998106062, 1.023205699864775, 1.0873237999621779, 1.198967699892819, 1.8955316999927163, 2.1347820998635143, 2.359793399926275]",,,,,,,,,,,,,,,,,,,,,,,,,1,001,F,2023_Jan_31_0946,student_TT_local,2021.1.4,59.625314530267396,
,None,None,None,None,None,None,None,None,None,None,upkeep,kipper,19.5,20.5,video&audio/Sentence2_touch_edited.mp4,video&audio/meddle_touch_edited.mp4,divert,meddle,None,,,,,,,,,,,,,,,,,,,,,,,,,,,0,26,26,25,,,,,,,,,,,,,,,,,,,,,,,,,,,,,,,,,,,,,,,,,,,,,,,,,None,,,None, divert,"['d', 'i', 'v', 'e', 'r', 't', 'return']","[0.6601789998821914, 0.7482855999842286, 0.8517388999462128, 1.044347200077027, 1.099625299917534, 1.2035882999189198, 1.3959274000953883]",,,,,,,,,,,,,,,,,,,,,,,,,1,001,F,2023_Jan_31_0946,student_TT_local,2021.1.4,59.625314530267396,
,None,None,None,None,None,None,None,None,None,None,mirage,malady,6.5,7.5,video&audio/sentence1_TT_3X.mp4,video&audio/shrewd_TT_3X.mp4,revoke,shrewd,None,,,,,,,,,,,,,,,,,,,,,,,,,,,0,27,27,6,,,,,,,,,,,,,,,,,,,,,,,,,,,,,,,,,,,,,,,,,,,,,,,,,None,,,None, recoke,"['r', 'e', 'c', 'o', 'k', 'e', 'return']","[0.5516637000255287, 0.6154408999718726, 0.8485546999145299, 0.9358814000152051, 1.0162706000264734, 1.0793747999705374, 1.1921240999363363]",,,,,,,,,,,,,,,,,,,,,,,,,1,001,F,2023_Jan_31_0946,student_TT_local,2021.1.4,59.625314530267396,
,None,None,None,None,None,None,None,None,None,None,infirm,pulpit,6.5,7.5,video&audio/sentence4_TT_3X.mp4,video&audio/oblige_TT_3X.mp4,mystic,oblige,None,,,,,,,,,,,,,,,,,,,,,,,,,,,0,28,28,3,,,,,,,,,,,,,,,,,,,,,,,,,,,,,,,,,,,,,,,,,,,,,,,,,None,,,['backspace'], mystic,"['m', 'y', 's', 't', 'i', 'c', 'return']","[0.9076571001205593, 1.468359700171277, 1.6758210000116378, 1.7555611000861973, 1.8525831000879407, 2.068386800121516, 2.1480051001999527]",[0.11248019989579916],,,,,,,,,,,,,,,,,,,,,,,,1,001,F,2023_Jan_31_0946,student_TT_local,2021.1.4,59.625314530267396,
,None,None,None,None,None,None,None,None,None,None,parole,solemn,6.5,7.5,video&audio/sentence3_TT_3X.mp4,video&audio/befall_TT_3X.mp4,ration,befall,None,,,,,,,,,,,,,,,,,,,,,,,,,,,0,29,29,8,,,,,,,,,,,,,,,,,,,,,,,,,,,,,,,,,,,,,,,,,,,,,,,,,None,,,None, ration,"['r', 'a', 't', 'i', 'o', 'n', 'return']","[0.5627852999605238, 0.6344574000686407, 0.8910336000844836, 0.9716580000240356, 1.0665313999634236, 1.3307618000544608, 1.506493499968201]",,,,,,,,,,,,,,,,,,,,,,,,,1,001,F,2023_Jan_31_0946,student_TT_local,2021.1.4,59.625314530267396,
,,,,,,,,,,,,,,,,,,,,typingRatingScale.png,"How would you rate your typing performance in the previous section?

Press a number on your keyboard according to the rating scale below to give your answer. Your first answer will be accepted.",,,,,,,,,,,,,,,,,,,,,,,,,,,,,0,0,0,0,,,,,,,,,,,,,,,,,,,,,,,,,,,,,,,,,,,,,,,,,,,,,,,,,,,,,['3'],[6.345608999952674],,,,,,,,,,,,,,,,,,,,,,1,001,F,2023_Jan_31_0946,student_TT_local,2021.1.4,59.625314530267396,
,,,,,,,,,,,,,,,,,,,,visualImageryScale.png,"While imagining yourself typing, how clear was your visual image?

Press a number on your keyboard according to the rating scale below to give your answer. Your first answer will be accepted.",,,,,,,,,,,,,,,,,,,,,,,,,,,,,0,1,1,1,,,,,,,,,,,,,,,,,,,,,,,,,,,,,,,,,,,,,,,,,,,,,,,,,,,,,['3'],[8.669457500101998],,,,,,,,,,,,,,,,,,,,,,1,001,F,2023_Jan_31_0946,student_TT_local,2021.1.4,59.625314530267396,
,,,,,,,,,,,,,,,,,,,,kinestheticImageryScale.png,"While imagining yourself typing, how intense were the sensations associated with the imagined movement?

Press a number on your keyboard according to the rating scale below to give your answer. Your first answer will be accepted.",,,,,,,,,,,,,,,,,,,,,,,,,,,,,0,2,2,2,,,,,,,,,,,,,,,,,,,,,,,,,,,,,,,,,,,,,,,,,,,,,,,,,,,,,['3'],[15.069396999897435],,,,,,,,,,,,,,,,,,,,,,1,001,F,2023_Jan_31_0946,student_TT_local,2021.1.4,59.625314530267396,
,None,None,None,None,None,None,None,None,None,None,binder,forage,19.5,20.5,video&audio/Sentence6_touch_edited.mp4,video&audio/campus_touch_edited.mp4,allure,campus,None,,,,,,,,,,,,,,,,,,,,,,,,,,,,,,,,,,,,,,,,,,,0,0,0,29,,,,,,,,,,,,,,,,,,,,,,,,,,,,,,,,,,,,,,,,,,,3198.0736009001266,3204.58042880008,None, butter,"['b', 'u', 't', 't', 'e', 'r', 'return']","[0.6834341001231223, 0.8833860999438912, 1.0034102001227438, 1.4673752000089735, 1.587462899973616, 1.7243329999037087, 1.867387699894607]",3252.333103199955,3271.8458253999706,None, forage,"['f', 'o', 'r', 'a', 'g', 'e', 'return']","[0.5544918000232428, 1.6263001000043005, 1.6979217999614775, 1.9139056999702007, 1.9297082999255508, 2.0739380999002606, 2.161921599879861]",,,,,,,,,,1,001,F,2023_Jan_31_0946,student_TT_local,2021.1.4,59.625314530267396,
,None,None,None,None,None,None,None,None,None,None,legion,subdue,19.5,20.5,video&audio/Sentence3_touch_edited.mp4,video&audio/feudal_touch_edited.mp4,matron,feudal,None,,,,,,,,,,,,,,,,,,,,,,,,,,,,,,,,,,,,,,,,,,,0,1,1,26,,,,,,,,,,,,,,,,,,,,,,,,,,,,,,,,,,,,,,,,,,,,,,,,,3275.048049000092,3294.560570599977,None, subdue,"['s', 'u', 'b', 'd', 'u', 'e', 'return']","[0.696280499920249, 0.7922264998778701, 0.8877256999257952, 1.1277977998834103, 1.23988899984397, 1.3519027999136597, 1.4638209999538958]",,,,,,,,,,1,001,F,2023_Jan_31_0946,student_TT_local,2021.1.4,59.625314530267396,
,None,None,None,None,None,None,None,None,None,None,strife,tariff,6.5,7.5,video&audio/sentence2_TT_3X.mp4,video&audio/delude_TT_3X.mp4,galley,delude,None,,,,,,,,,,,,,,,,,,,,,,,,,,,,,,,,,,,,,,,,,,,0,2,2,7,,,,,,,,,,,,,,,,,,,,,,,,,,,,,,,,,,,,,,,,,,,,,,,,,3297.0650132000446,3303.5745220999233,None, tarif,"['t', 'a', 'r', 'i', 'f', 'return']","[0.5200665001757443, 0.7362504000775516, 0.8803861001506448, 1.0643532001413405, 1.168203700101003, 1.40803960012272]",,,,,,,,,,1,001,F,2023_Jan_31_0946,student_TT_local,2021.1.4,59.625314530267396,
,None,None,None,None,None,None,None,None,None,None,mirage,malady,6.5,7.5,video&audio/sentence1_TT_3X.mp4,video&audio/shrewd_TT_3X.mp4,revoke,shrewd,None,,,,,,,,,,,,,,,,,,,,,,,,,,,,,,,,,,,,,,,,,,,0,3,3,6,,,,,,,,,,,,,,,,,,,,,,,,,,,,,,,,,,,,,,,,,,,,,,,,,3306.0174919001292,3312.525826100027,None, malady,"['m', 'a', 'l', 'a', 'd', 'y', 'return']","[1.0566833999473602, 1.1362246999051422, 1.264400899875909, 1.3605841000098735, 1.6088914000429213, 1.6964483000338078, 1.8643610998988152]",,,,,,,,,,1,001,F,2023_Jan_31_0946,student_TT_local,2021.1.4,59.625314530267396,
,None,None,None,None,None,None,None,None,None,None,sherry,jackal,6.5,7.5,video&audio/sentence4_TT_3X.mp4,video&audio/hamlet_TT_3X.mp4,shroud,hamlet,None,,,,,,,,,,,,,,,,,,,,,,,,,,,,,,,,,,,,,,,,,,,0,4,4,9,,,,,,,,,,,,,,,,,,,,,,,,,,,,,,,,,,,,,,,,,,,,,,,,,3315.4370977999642,3321.943044600077,None, jackal,"['j', 'a', 'c', 'k', 'a', 'l', 'return']","[1.5287949999328703, 1.5839271999429911, 1.6641482000704855, 1.8085702999960631, 1.9201597000937909, 2.1604414999019355, 2.376908600097522]",,,,,,,,,,1,001,F,2023_Jan_31_0946,student_TT_local,2021.1.4,59.625314530267396,
,None,None,None,None,None,None,None,None,None,None,parole,solemn,6.5,7.5,video&audio/sentence3_TT_3X.mp4,video&audio/befall_TT_3X.mp4,ration,befall,None,,,,,,,,,,,,,,,,,,,,,,,,,,,,,,,,,,,,,,,,,,,0,5,5,8,,,,,,,,,,,,,,,,,,,,,,,,,,,,,,,,,,,,,,,,,,,,,,,,,3325.347242299933,3331.8590095001273,None, solemn,"['s', 'o', 'l', 'e', 'm', 'n', 'return']","[0.6693122000433505, 0.741657700156793, 0.9331712001003325, 1.0211976000573486, 1.1251368999946862, 1.4134780999738723, 1.6063530000392348]",,,,,,,,,,1,001,F,2023_Jan_31_0946,student_TT_local,2021.1.4,59.625314530267396,
,None,None,None,None,None,None,None,None,None,None,revolt,virile,6.5,7.5,video&audio/sentence6_TT_3X.mp4,video&audio/joiner_TT_3X.mp4,apathy,joiner,None,,,,,,,,,,,,,,,,,,,,,,,,,,,,,,,,,,,,,,,,,,,0,6,6,5,,,,,,,,,,,,,,,,,,,,,,,,,,,,,,,,,,,,,,,,,,,,,,,,,3334.4974066999275,3341.0072735000867,None, virile,"['v', 'a', 'r', 'i', 'l', 'e', 'backspace', 'backspace', 'backspace', 'backspace', 'backspace', 'i', 'r', 'i', 'l', 'e', 'return']","[0.7686960001010448, 0.8166004000231624, 1.016532100038603, 1.073904300108552, 1.2646294999867678, 1.3847324999514967, 1.9685068000108004, 2.128987899981439, 2.232714200159535, 2.368464499944821, 2.5611102001275867, 3.136536099947989, 3.2005910000298172, 3.3207312000449747, 3.4886849999893457, 3.560865300009027, 3.6809030000586063]",,,,,,,,,,1,001,F,2023_Jan_31_0946,student_TT_local,2021.1.4,59.625314530267396,
,None,None,None,None,None,None,None,None,None,None,satire,cortex,19.5,20.5,video&audio/Sentence4_touch_edited.mp4,video&audio/induce_touch_edited.mp4,mussel,induce,None,,,,,,,,,,,,,,,,,,,,,,,,,,,,,,,,,,,,,,,,,,,0,7,7,21,,,,,,,,,,,,,,,,,,,,,,,,,,,,,,,,,,,,,,,,,,,,,,,,,3345.723144300049,3365.2232202999294,None, cortex,"['c', 'o', 'r', 'e', 't', 'backspace', 'backspace', 'backspace', 't', 'e', 'backspace', 'backspace', 'r', 't', 'e', 'x', 'return']","[0.23065489996224642, 0.6716014000121504, 0.7501816998701543, 0.8223478998988867, 1.142736499896273, 1.4390223999507725, 1.5659194998443127, 1.7179948999546468, 1.8783045997843146, 1.926009199814871, 2.486698299879208, 2.6063062998000532, 2.7180704998318106, 2.878024799982086, 2.9658884999807924, 3.3821121999062598, 3.5180974998511374]",,,,,,,,,,1,001,F,2023_Jan_31_0946,student_TT_local,2021.1.4,59.625314530267396,
,"This is Section 2.

In this section, your task will be the same as before - that is, to type the word you see on the screen AFTER the typing prompt. However, rather than just seeing the word before typing, you will also see a video of someone typing different words to what you will need to type at different speeds. 

Press 'enter/return' to go to the next page.","This is Section 4. 

In this section, your task will be the same as before - that is, to type the word you see on the screen after the typing prompt. You will see a video again, like in Section 2, only this time, the video will show someone the same word that you must type at different speeds. 

Press 'enter/return' to go to the next page.",video&audio/Example_AOMI_layout.png,1.6,0.6,afford,19.5,20.5,video&audio/amount_touch_edited.mp4,video&audio/afford_touch_edited.mp4,vanity,matrix,6.5,7.5,video&audio/sentence1_TT_3X.mp4,video&audio/hinder_TT_3X.mp4,breach,hinder,1 = AOMIgen,,,,,,,,,,,,,,,,,,,,,,,,,,,,,,,,,,,,,,,,,,,0,8,8,0,,,,,,,,,,,,,,,,,,,,,,,,,,,,,,,,,,,,,,,,,,,,,,,,,3369.79396619997,3376.3065812001005,None, matrix,"['m', 'a', 't', 'r', 'i', 'x', 'return']","[0.6020541000179946, 0.6490545000415295, 0.7452132001053542, 0.8409537000115961, 0.94510000012815, 1.2025985999498516, 1.29697829997167]",,,,,,,,,,1,001,F,2023_Jan_31_0946,student_TT_local,2021.1.4,59.625314530267396,
,None,None,None,None,None,None,None,None,None,None,brazen,piston,19.5,20.5,video&audio/Sentence3_touch_edited.mp4,video&audio/caviar_touch_edited.mp4,shrill,caviar,None,,,,,,,,,,,,,,,,,,,,,,,,,,,,,,,,,,,,,,,,,,,0,9,9,20,,,,,,,,,,,,,,,,,,,,,,,,,,,,,,,,,,,,,,,,,,,,,,,,,3378.645466600079,3398.1549269999377,None, piston,"['p', 's', 'backspace', 'i', 's', 't', 'o', 'n', 'return']","[0.9799081000965089, 1.1639407000038773, 1.8444825001060963, 2.164023600053042, 2.2124452001880854, 2.3002659999765456, 2.4203078001737595, 2.5244707001838833, 2.7239834000356495]",,,,,,,,,,1,001,F,2023_Jan_31_0946,student_TT_local,2021.1.4,59.625314530267396,
,None,None,None,None,None,None,None,None,None,None,deduct,hippie,6.5,7.5,video&audio/sentence3_TT_3X.mp4,video&audio/hearth_TT_3X.mp4,herbal,hearth,None,,,,,,,,,,,,,,,,,,,,,,,,,,,,,,,,,,,,,,,,,,,0,10,10,14,,,,,,,,,,,,,,,,,,,,,,,,,,,,,,,,,,,,,,,,,,,,,,,,,3436.1085046001244,3442.61297259992,None, hippie,"['h', 'i', 'p', 'p', 'i', 'e', 'return']","[0.4276938000693917, 1.139848600141704, 1.3571341999340802, 1.4365918000694364, 1.6443406001199037, 1.7243129000999033, 1.876707199960947]",,,,,,,,,,1,001,F,2023_Jan_31_0946,student_TT_local,2021.1.4,59.625314530267396,
,None,None,None,None,None,None,None,None,None,None,potent,neural,6.5,7.5,video&audio/sentence2_TT_3X.mp4,video&audio/septic_TT_3X.mp4,ordain,septic,None,,,,,,,,,,,,,,,,,,,,,,,,,,,,,,,,,,,,,,,,,,,0,11,11,13,,,,,,,,,,,,,,,,,,,,,,,,,,,,,,,,,,,,,,,,,,,,,,,,,3445.55739620002,3452.068746099947,None, neural,"['n', 'e', 'u', 'r', 'a', 'l', 'return']","[0.8246899000369012, 0.9202733999118209, 1.0161792000290006, 1.104255999904126, 1.2089889999479055, 1.2802003000397235, 1.5288936998695135]",,,,,,,,,,1,001,F,2023_Jan_31_0946,student_TT_local,2021.1.4,59.625314530267396,
,None,None,None,None,None,None,None,None,None,None,impose,belfry,19.5,20.5,video&audio/Sentence6_touch_edited.mp4,video&audio/girdle_touch_edited.mp4,linear,girdle,None,,,,,,,,,,,,,,,,,,,,,,,,,,,,,,,,,,,,,,,,,,,0,12,12,23,,,,,,,,,,,,,,,,,,,,,,,,,,,,,,,,,,,,,,,,,,,,,,,,,3454.625937100034,3474.134549499955,None, belfry,"['b', 'e', 'k', 'backspace', 'l', 'f', 'r', 'y', 'return']","[0.5064856000244617, 0.601166500011459, 1.0810223000589758, 1.665256599895656, 1.9530084000434726, 2.041747200069949, 2.2250144998542964, 2.2976923999376595, 2.7294816998764873]",,,,,,,,,,1,001,F,2023_Jan_31_0946,student_TT_local,2021.1.4,59.625314530267396,
,None,None,None,None,None,None,None,None,None,None,infirm,pulpit,6.5,7.5,video&audio/sentence4_TT_3X.mp4,video&audio/oblige_TT_3X.mp4,mystic,oblige,None,,,,,,,,,,,,,,,,,,,,,,,,,,,,,,,,,,,,,,,,,,,0,13,13,3,,,,,,,,,,,,,,,,,,,,,,,,,,,,,,,,,,,,,,,,,,,,,,,,,3477.8965183000546,3484.401214899961,None, pulpit,"['p', 'u', 'l', 'p', 'i', 't', 'return']","[0.6951009000185877, 0.8237707000225782, 1.0864717999938875, 1.5280062998645008, 1.7110768998973072, 1.782543299952522, 1.878863099962473]",,,,,,,,,,1,001,F,2023_Jan_31_0946,student_TT_local,2021.1.4,59.625314530267396,
,None,None,None,None,None,None,None,None,None,None,fodder,devise,19.5,20.5,video&audio/Sentence1_touch_edited.mp4,video&audio/mangle_touch_edited.mp4,warble,mangle,None,,,,,,,,,,,,,,,,,,,,,,,,,,,,,,,,,,,,,,,,,,,0,14,14,24,,,,,,,,,,,,,,,,,,,,,,,,,,,,,,,,,,,,,,,,,,,,,,,,,3487.3070660000667,3506.816830100026,None, devise,"['d', 'e', 'v', 'i', 's', 'e', 'return']","[0.3724813999142498, 0.5321583999320865, 0.7482547000981867, 0.8376098999287933, 0.9884798000566661, 1.068411699961871, 1.564447300042957]",,,,,,,,,,1,001,F,2023_Jan_31_0946,student_TT_local,2021.1.4,59.625314530267396,
,None,None,None,None,None,None,None,None,None,None,murmur,ritual,19.5,20.5,video&audio/Sentence6_touch_edited.mp4,video&audio/clergy_touch_edited.mp4,portal,clergy,None,,,,,,,,,,,,,,,,,,,,,,,,,,,,,,,,,,,,,,,,,,,0,15,15,17,,,,,,,,,,,,,,,,,,,,,,,,,,,,,,,,,,,,,,,,,,,,,,,,,3509.420546800131,3528.932945800014,None, ritual,"['r', 'i', 't', 'u', 'a', 'l', 'return']","[0.41621530009433627, 0.5843536001630127, 0.7601054001133889, 0.9121236000210047, 1.0003822001162916, 1.6245671999640763, 1.8002614001743495]",,,,,,,,,,1,001,F,2023_Jan_31_0946,student_TT_local,2021.1.4,59.625314530267396,
,None,None,None,None,None,None,None,None,None,None,critic,obsess,6.5,7.5,video&audio/sentence5_TT_3X.mp4,video&audio/zephyr_TT_3X.mp4,fusion,zephyr,None,,,,,,,,,,,,,,,,,,,,,,,,,,,,,,,,,,,,,,,,,,,0,16,16,10,,,,,,,,,,,,,,,,,,,,,,,,,,,,,,,,,,,,,,,,,,,,,,,,,3531.7744762001093,3538.2815902999137,None, obsees,"['o', 'b', 's', 'e', 'e', 's', 'return']","[0.6901575000956655, 0.8191548001486808, 1.2345050999429077, 1.2580830999650061, 1.4971789999399334, 1.641966399969533, 1.761311799986288]",,,,,,,,,,1,001,F,2023_Jan_31_0946,student_TT_local,2021.1.4,59.625314530267396,
,None,None,None,None,None,None,None,None,None,None,manure,picket,19.5,20.5,video&audio/Sentence5_touch_edited.mp4,video&audio/parish_touch_edited.mp4,gullet,parish,None,,,,,,,,,,,,,,,,,,,,,,,,,,,,,,,,,,,,,,,,,,,0,17,17,28,,,,,,,,,,,,,,,,,,,,,,,,,,,,,,,,,,,,,,,,,,,,,,,,,3541.085290499963,3560.596598400036,None, picket,"['p', 'i', 'c', 'k', 'e', 't', 'return']","[0.7868645000271499, 0.9472086001187563, 1.002709300024435, 1.1388195001054555, 1.2508023001719266, 1.3154781002085656, 1.3949139001779258]",,,,,,,,,,1,001,F,2023_Jan_31_0946,student_TT_local,2021.1.4,59.625314530267396,
,"While you watch the video, imagine yourself typing the word on the screen, like how you did in the imagery practice. While you watch the video and imagine this, rest your hands on your keyboard but DO NOT type until AFTER you see the typing prompt.

Press 'enter/return' to go to the next page.","While watching the video, imagine yourself typing the word on the screen, like how you did in the imagery practice. While you watch the video and imagine this, rest your hands on your keyboard but DO NOT type until AFTER you see the typing prompt.

Press 'enter/return' to go to the next page.",video&audio/Example_AOMI_imagine.png,1.6,1,butter,6.5,7.5,video&audio/amount_TT_3X.mp4,video&audio/butter_TT_3X.mp4,plight,ascend,6.5,7.5,video&audio/sentence2_TT_3X.mp4,video&audio/metric_TT_3X.mp4,eatery,metric,2 = AOMIspec,,,,,,,,,,,,,,,,,,,,,,,,,,,,,,,,,,,,,,,,,,,0,18,18,1,,,,,,,,,,,,,,,,,,,,,,,,,,,,,,,,,,,,,,,,,,,,,,,,,3563.0197028999683,3569.5300402999856,None, ascend,"['a', 's', 'c', 'e', 'n', 'd', 'return']","[0.3628325001336634, 0.41868410003371537, 0.6746895001269877, 0.7391017000190914, 0.8984796002041548, 1.1626510000787675, 1.290799500187859]",,,,,,,,,,1,001,F,2023_Jan_31_0946,student_TT_local,2021.1.4,59.625314530267396,
,"Remember to type as QUICKLY and ACCURATELY as possible after the 'get ready' prompt.

Ask the experimenter any questions now. Please put on the headphones.

You will get one practice trial. Press 'enter/return' when you are ready to start the practice.","Remember to type as QUICKLY and ACCURATELY as you can after the 'get ready' prompt.

Ask the experimenter any questions now. Please put on the headphones.

You will get one practice trial. Press 'enter/return' when you are ready to start the practice.",video&audio/Example_AOMI_total.png,1.8,0.7,None,None,None,None,None,jargon,frugal,6.5,7.5,video&audio/sentence3_TT_3X.mp4,video&audio/oppose_TT_3X.mp4,ghetto,oppose,None,,,,,,,,,,,,,,,,,,,,,,,,,,,,,,,,,,,,,,,,,,,0,19,19,2,,,,,,,,,,,,,,,,,,,,,,,,,,,,,,,,,,,,,,,,,,,,,,,,,3571.8546281999443,3578.362888700096,None, frugal,"['f', 'r', 'u', 'g', 'a', 'l', 'return']","[0.37091380008496344, 0.9149317999836057, 1.0111847999505699, 1.2429742000531405, 1.3634788999333978, 1.6753247000742704, 1.8990983001422137]",,,,,,,,,,1,001,F,2023_Jan_31_0946,student_TT_local,2021.1.4,59.625314530267396,
,None,None,None,None,None,None,None,None,None,None,convoy,plasma,19.5,20.5,video&audio/Sentence5_touch_edited.mp4,video&audio/jailer_touch_edited.mp4,nettle,jailer,None,,,,,,,,,,,,,,,,,,,,,,,,,,,,,,,,,,,,,,,,,,,0,20,20,16,,,,,,,,,,,,,,,,,,,,,,,,,,,,,,,,,,,,,,,,,,,,,,,,,3596.473369400017,3615.978227399988,None, plasma,"['p', 'l', 'a', 's', 'm', 'a', 'return']","[0.692926499992609, 0.7729235999286175, 0.8770096998196095, 0.9324289998039603, 1.0612692998256534, 1.196442399872467, 1.3483760999515653]",,,,,,,,,,1,001,F,2023_Jan_31_0946,student_TT_local,2021.1.4,59.625314530267396,
,None,None,None,None,None,None,None,None,None,None,musket,subtle,19.5,20.5,video&audio/Sentence5_touch_edited.mp4,video&audio/fungal_touch_edited.mp4,mucous,fungal,None,,,,,,,,,,,,,,,,,,,,,,,,,,,,,,,,,,,,,,,,,,,0,21,21,22,,,,,,,,,,,,,,,,,,,,,,,,,,,,,,,,,,,,,,,,,,,,,,,,,3618.367926900042,3637.8777574000414,None, subtle,"['s', 'u', 'b', 't', 'l', 'e', 'return']","[0.6987272000405937, 0.8506295001134276, 0.9067062002141029, 1.1786550001706928, 1.5632606002036482, 1.6750214002095163, 2.1074814000166953]",,,,,,,,,,1,001,F,2023_Jan_31_0946,student_TT_local,2021.1.4,59.625314530267396,
,None,None,None,None,None,None,None,None,None,None,savant,cervix,19.5,20.5,video&audio/Sentence2_touch_edited.mp4,video&audio/cobble_touch_edited.mp4,export,cobble,None,,,,,,,,,,,,,,,,,,,,,,,,,,,,,,,,,,,,,,,,,,,0,22,22,19,,,,,,,,,,,,,,,,,,,,,,,,,,,,,,,,,,,,,,,,,,,,,,,,,3641.0143138000276,3660.5271429000422,None, cervix,"['c', 'e', 'r', 'v', 'i', 'x', 'return']","[0.641134100034833, 0.8657271000556648, 0.9058998001273721, 1.1533320001326501, 1.2573834999930114, 1.409777699969709, 1.5454373999964446]",,,,,,,,,,1,001,F,2023_Jan_31_0946,student_TT_local,2021.1.4,59.625314530267396,
,None,None,None,None,None,None,None,None,None,None,upkeep,kipper,19.5,20.5,video&audio/Sentence2_touch_edited.mp4,video&audio/meddle_touch_edited.mp4,divert,meddle,None,,,,,,,,,,,,,,,,,,,,,,,,,,,,,,,,,,,,,,,,,,,0,23,23,25,,,,,,,,,,,,,,,,,,,,,,,,,,,,,,,,,,,,,,,,,,,,,,,,,3663.097876999993,3682.607486800058,None, kipper,"['k', 'i', 'p', 'p', 'e', 'r', 'return']","[0.5874055000022054, 0.7468487999867648, 0.9714214999694377, 1.0830498000141233, 1.1469310999382287, 1.2109001998323947, 1.307744799880311]",,,,,,,,,,1,001,F,2023_Jan_31_0946,student_TT_local,2021.1.4,59.625314530267396,
,None,None,None,None,None,None,None,None,None,None,pursue,debtor,19.5,20.5,video&audio/Sentence1_touch_edited.mp4,video&audio/output_touch_edited.mp4,uphold,output,None,,,,,,,,,,,,,,,,,,,,,,,,,,,,,,,,,,,,,,,,,,,0,24,24,18,,,,,,,,,,,,,,,,,,,,,,,,,,,,,,,,,,,,,,,,,,,,,,,,,3684.945339200087,3704.4569073000457,None, debtor,"['d', 'e', 'b', 't', 'o', 'r', 'return']","[0.2859694000799209, 0.4541945999953896, 0.5660892000887543, 0.6946251001209021, 0.8142184000462294, 0.926414699992165, 1.085856799967587]",,,,,,,,,,1,001,F,2023_Jan_31_0946,student_TT_local,2021.1.4,59.625314530267396,
,None,None,None,None,None,None,None,None,None,None,goblet,botany,19.5,20.5,video&audio/Sentence4_touch_edited.mp4,video&audio/trench_touch_edited.mp4,ethnic,trench,None,,,,,,,,,,,,,,,,,,,,,,,,,,,,,,,,,,,,,,,,,,,0,25,25,27,,,,,,,,,,,,,,,,,,,,,,,,,,,,,,,,,,,,,,,,,,,,,,,,,3706.5802218001336,3726.0893264999613,None, botany,"['b', 'o', 't', 'a', 'n', 'y', 'return']","[0.6276584998704493, 0.7955145000014454, 0.8758662999607623, 0.963687599869445, 1.0193773999344558, 1.2115100999362767, 1.363656000001356]",,,,,,,,,,1,001,F,2023_Jan_31_0946,student_TT_local,2021.1.4,59.625314530267396,
,None,None,None,None,None,None,None,None,None,None,sonnet,confer,6.5,7.5,video&audio/sentence1_TT_3X.mp4,video&audio/innate_TT_3X.mp4,tamper,innate,None,,,,,,,,,,,,,,,,,,,,,,,,,,,,,,,,,,,,,,,,,,,0,26,26,12,,,,,,,,,,,,,,,,,,,,,,,,,,,,,,,,,,,,,,,,,,,,,,,,,3728.49319700012,3734.993458500132,None, confer,"['c', 'o', 'n', 'f', 'e', 'r', 'return']","[0.5752757999580353, 0.6394942000042647, 0.7279165999498218, 0.8232646998949349, 0.9669828000478446, 1.0312196998856962, 1.0949508000630885]",,,,,,,,,,1,001,F,2023_Jan_31_0946,student_TT_local,2021.1.4,59.625314530267396,
,None,None,None,None,None,None,None,None,None,None,novice,parcel,6.5,7.5,video&audio/sentence5_TT_3X.mp4,video&audio/primal_TT_3X.mp4,entail,primal,None,,,,,,,,,,,,,,,,,,,,,,,,,,,,,,,,,,,,,,,,,,,0,27,27,4,,,,,,,,,,,,,,,,,,,,,,,,,,,,,,,,,,,,,,,,,,,,,,,,,3737.144245600095,3743.656457300065,None, parcel,"['p', 'a', 'r', 'c', 'e', 'l', 'return']","[0.704468599986285, 0.8169861000496894, 0.8719134000129998, 1.2244408000260592, 1.2879801001399755, 1.3685868000611663, 1.5849220000673085]",,,,,,,,,,1,001,F,2023_Jan_31_0946,student_TT_local,2021.1.4,59.625314530267396,
,None,None,None,None,None,None,None,None,None,None,coerce,falter,19.5,20.5,video&audio/Sentence4_touch_edited.mp4,video&audio/tandem_touch_edited.mp4,origin,tandem,None,,,,,,,,,,,,,,,,,,,,,,,,,,,,,,,,,,,,,,,,,,,0,28,28,15,,,,,,,,,,,,,,,,,,,,,,,,,,,,,,,,,,,,,,,,,,,,,,,,,3746.2759140001144,3765.7869164999574,None, falter,"['f', 'a', 'l', 't', 'e', 'r', 'return']","[0.3945488000754267, 0.45852089999243617, 0.5378721000161022, 0.7301862998865545, 0.8019913998432457, 0.9621804999187589, 1.3225465998984873]",,,,,,,,,,1,001,F,2023_Jan_31_0946,student_TT_local,2021.1.4,59.625314530267396,
,None,None,None,None,None,None,None,None,None,None,quarry,covert,6.5,7.5,video&audio/sentence6_TT_3X.mp4,video&audio/patent_TT_3X.mp4,defame,patent,None,,,,,,,,,,,,,,,,,,,,,,,,,,,,,,,,,,,,,,,,,,,0,29,29,11,,,,,,,,,,,,,,,,,,,,,,,,,,,,,,,,,,,,,,,,,,,,,,,,,3768.141826200066,3774.653848600108,None, convert,"['c', 'o', 'n', 'v', 'e', 'r', 't', 'return']","[0.6255410998128355, 0.7069743999745697, 0.8100260000210255, 0.898088000016287, 1.0660706998314708, 1.0977588000241667, 1.321811700006947, 1.3940308999735862]",,,,,,,,,,1,001,F,2023_Jan_31_0946,student_TT_local,2021.1.4,59.625314530267396,
,,,,,,,,,,,,,,,,,,,,typingRatingScale.png,"How would you rate your typing performance in the previous section?

Press a number on your keyboard according to the rating scale below to give your answer. Your first answer will be accepted.",,,,,,,,,,,,,,,,,,,,,,,,,,,,,,,,,,,,,,,,,,,,,0,0,0,0,,,,,,,,,,,,,,,,,,,,,,,,,,,,,,,,,,,,,,,,,,,,,,,,,,,['3'],[13.817031499929726],,,,,,,,1,001,F,2023_Jan_31_0946,student_TT_local,2021.1.4,59.625314530267396,
,,,,,,,,,,,,,,,,,,,,imageryCheckScale.png,"In the previous section did you imagine yourself typing?

Press a number on your keyboard according to the rating scale below to give your answer. Your first answer will be accepted.",,,,,,,,,,,,,,,,,,,,,,,,,,,,,,,,,,,,,,,,,,,,,0,1,1,1,,,,,,,,,,,,,,,,,,,,,,,,,,,,,,,,,,,,,,,,,,,,,,,,,,,['2'],[5.54436710011214],,,,,,,,1,001,F,2023_Jan_31_0946,student_TT_local,2021.1.4,59.625314530267396,
,None,None,None,None,None,None,None,None,None,None,parole,solemn,6.5,7.5,video&audio/sentence3_TT_3X.mp4,video&audio/befall_TT_3X.mp4,ration,befall,None,,,,,,,,,,,,,,,,,,,,,,,,,,,,,,,,,,,,,,,,,,,,,,,,,,,,,,,,,,,0,0,0,8,,,,,,,,,,,,,,,,,None,"['b', 'u', 't', 't', 'e', 'r', 'return']","[1.76064270013012, 1.8571779001504183, 1.9690866000019014, 2.137034800136462, 2.272778500104323, 2.344660999951884, 2.457080400083214]",,,,,,,,,,,,,,,,,,,,,,None,None, befall,"['b', 'e', 'f', 'a', 'l', 'l', 'return']","[0.792223600205034, 0.936358000151813, 1.0251838001422584, 1.1603039000183344, 1.3286311000119895, 1.4495819001458585, 1.6884797001257539]",,,1,001,F,2023_Jan_31_0946,student_TT_local,2021.1.4,59.625314530267396,
,None,None,None,None,None,None,None,None,None,None,savant,cervix,19.5,20.5,video&audio/Sentence2_touch_edited.mp4,video&audio/cobble_touch_edited.mp4,export,cobble,None,,,,,,,,,,,,,,,,,,,,,,,,,,,,,,,,,,,,,,,,,,,,,,,,,,,,,,,,,,,0,1,1,19,,,,,,,,,,,,,,,,,None,,,,,,,,,,,,,,,,,,,,,,,,,None, cobble,"['c', 'o', 'b', 'b', 'l', 'e', 'return']","[0.8123260999564081, 0.8840441999491304, 1.1004894999787211, 1.4999768000561744, 1.7319374999497086, 1.8367894999682903, 1.9960600999183953]",,,1,001,F,2023_Jan_31_0946,student_TT_local,2021.1.4,59.625314530267396,
,"Remember to type as QUICKLY and ACCURATELY as possible after the 'get ready' prompt.

Ask the experimenter any questions now. Please put on the headphones.

You will get one practice trial. Press 'enter/return' when you are ready to start the practice.","Remember to type as QUICKLY and ACCURATELY as you can after the 'get ready' prompt.

Ask the experimenter any questions now. Please put on the headphones.

You will get one practice trial. Press 'enter/return' when you are ready to start the practice.",video&audio/Example_AOMI_total.png,1.8,0.7,None,None,None,None,None,jargon,frugal,6.5,7.5,video&audio/sentence3_TT_3X.mp4,video&audio/oppose_TT_3X.mp4,ghetto,oppose,None,,,,,,,,,,,,,,,,,,,,,,,,,,,,,,,,,,,,,,,,,,,,,,,,,,,,,,,,,,,0,2,2,2,,,,,,,,,,,,,,,,,None,,,,,,,,,,,,,,,,,,,,,,,,,None, oppose,"['o', 'p', 'p', 'o', 's', 'e', 'return']","[0.8460138000082225, 1.1090062998700887, 1.8210781998932362, 2.190346899908036, 2.3171252999454737, 2.388982699951157, 2.5254490999504924]",,,1,001,F,2023_Jan_31_0946,student_TT_local,2021.1.4,59.625314530267396,
,None,None,None,None,None,None,None,None,None,None,coerce,falter,19.5,20.5,video&audio/Sentence4_touch_edited.mp4,video&audio/tandem_touch_edited.mp4,origin,tandem,None,,,,,,,,,,,,,,,,,,,,,,,,,,,,,,,,,,,,,,,,,,,,,,,,,,,,,,,,,,,0,3,3,15,,,,,,,,,,,,,,,,,None,,,,,,,,,,,,,,,,,,,,,,,,,None, tandem,"['t', 'a', 'n', 'd', 'e', 'm', 'return']","[0.6511924001388252, 0.7233119001612067, 0.9153210001531988, 0.9961441000923514, 1.259184000082314, 1.3640121000353247, 1.6352540000807494]",,,1,001,F,2023_Jan_31_0946,student_TT_local,2021.1.4,59.625314530267396,
,None,None,None,None,None,None,None,None,None,None,potent,neural,6.5,7.5,video&audio/sentence2_TT_3X.mp4,video&audio/septic_TT_3X.mp4,ordain,septic,None,,,,,,,,,,,,,,,,,,,,,,,,,,,,,,,,,,,,,,,,,,,,,,,,,,,,,,,,,,,0,4,4,13,,,,,,,,,,,,,,,,,None,,,,,,,,,,,,,,,,,,,,,,,,,None, septic,"['s', 'e', 'p', 't', 'c', 'i', 'backspace', 'backspace', 'i', 'c', 'return']","[0.556020500138402, 0.6118207999970764, 0.8275866000913084, 0.9078917000442743, 1.2204208001494408, 1.275693800067529, 1.8366995002143085, 1.9558574000839144, 2.5475733000785112, 2.604043200146407, 2.763644800055772]",,,1,001,F,2023_Jan_31_0946,student_TT_local,2021.1.4,59.625314530267396,
,None,None,None,None,None,None,None,None,None,None,legion,subdue,19.5,20.5,video&audio/Sentence3_touch_edited.mp4,video&audio/feudal_touch_edited.mp4,matron,feudal,None,,,,,,,,,,,,,,,,,,,,,,,,,,,,,,,,,,,,,,,,,,,,,,,,,,,,,,,,,,,0,5,5,26,,,,,,,,,,,,,,,,,None,,,,,,,,,,,,,,,,,,,,,,,,,None, feudal,"['d', 'e', 'u', 'backspace', 'backspace', 'backspace', 'f', 'e', 'u', 'd', 'a', 'l', 'return']","[0.41484199999831617, 0.6077361998613924, 0.7033344998490065, 1.1434043999761343, 1.2869382000062615, 1.567092299927026, 1.7597912000492215, 1.8154674998950213, 2.45509669999592, 2.7830478998366743, 2.8874601998832077, 3.071461800020188, 3.3359850998967886]",,,1,001,F,2023_Jan_31_0946,student_TT_local,2021.1.4,59.625314530267396,
,None,None,None,None,None,None,None,None,None,None,musket,subtle,19.5,20.5,video&audio/Sentence5_touch_edited.mp4,video&audio/fungal_touch_edited.mp4,mucous,fungal,None,,,,,,,,,,,,,,,,,,,,,,,,,,,,,,,,,,,,,,,,,,,,,,,,,,,,,,,,,,,0,6,6,22,,,,,,,,,,,,,,,,,None,,,,,,,,,,,,,,,,,,,,,,,,,None, fungal,"['f', 'u', 'n', 'g', 'a', 'l', 'return']","[0.7264675998594612, 0.8062883999664336, 0.9021661998704076, 1.1499878999311477, 1.238457900006324, 1.3102275000419468, 1.5661054998636246]",,,1,001,F,2023_Jan_31_0946,student_TT_local,2021.1.4,59.625314530267396,
,None,None,None,None,None,None,None,None,None,None,quarry,covert,6.5,7.5,video&audio/sentence6_TT_3X.mp4,video&audio/patent_TT_3X.mp4,defame,patent,None,,,,,,,,,,,,,,,,,,,,,,,,,,,,,,,,,,,,,,,,,,,,,,,,,,,,,,,,,,,0,7,7,11,,,,,,,,,,,,,,,,,None,,,,,,,,,,,,,,,,,,,,,,,,,None, patent,"['p', 'a', 't', 'e', 'n', 't', 'return']","[0.6435138999950141, 0.7711709002032876, 0.8350771002005786, 0.9793305001221597, 1.1237767999991775, 1.67537960014306, 1.8111956000793725]",,,1,001,F,2023_Jan_31_0946,student_TT_local,2021.1.4,59.625314530267396,
,None,None,None,None,None,None,None,None,None,None,manure,picket,19.5,20.5,video&audio/Sentence5_touch_edited.mp4,video&audio/parish_touch_edited.mp4,gullet,parish,None,,,,,,,,,,,,,,,,,,,,,,,,,,,,,,,,,,,,,,,,,,,,,,,,,,,,,,,,,,,0,8,8,28,,,,,,,,,,,,,,,,,None,,,,,,,,,,,,,,,,,,,,,,,,,None, parish,"['p', 'a', 'r', 'i', 's', 'h', 'return']","[0.7644004998728633, 0.9165101000107825, 0.9646934999618679, 1.1324263999704272, 1.2771117999218404, 1.3645233998540789, 1.5485189999453723]",,,1,001,F,2023_Jan_31_0946,student_TT_local,2021.1.4,59.625314530267396,
,"This is Section 2.

In this section, your task will be the same as before - that is, to type the word you see on the screen AFTER the typing prompt. However, rather than just seeing the word before typing, you will also see a video of someone typing different words to what you will need to type at different speeds. 

Press 'enter/return' to go to the next page.","This is Section 4. 

In this section, your task will be the same as before - that is, to type the word you see on the screen after the typing prompt. You will see a video again, like in Section 2, only this time, the video will show someone the same word that you must type at different speeds. 

Press 'enter/return' to go to the next page.",video&audio/Example_AOMI_layout.png,1.6,0.6,afford,19.5,20.5,video&audio/amount_touch_edited.mp4,video&audio/afford_touch_edited.mp4,vanity,matrix,6.5,7.5,video&audio/sentence1_TT_3X.mp4,video&audio/hinder_TT_3X.mp4,breach,hinder,1 = AOMIgen,,,,,,,,,,,,,,,,,,,,,,,,,,,,,,,,,,,,,,,,,,,,,,,,,,,,,,,,,,,0,9,9,0,,,,,,,,,,,,,,,,,None,,,,,,,,,,,,,,,,,,,,,,,,,None, hinder,"['h', 'i', 'n', 'd', 'e', 'r', 'return']","[0.6625359000172466, 0.8459920999594033, 0.9177031998988241, 1.0777354999445379, 1.1105432999320328, 1.2941310999449342, 1.3744733999483287]",,,1,001,F,2023_Jan_31_0946,student_TT_local,2021.1.4,59.625314530267396,
,None,None,None,None,None,None,None,None,None,None,strife,tariff,6.5,7.5,video&audio/sentence2_TT_3X.mp4,video&audio/delude_TT_3X.mp4,galley,delude,None,,,,,,,,,,,,,,,,,,,,,,,,,,,,,,,,,,,,,,,,,,,,,,,,,,,,,,,,,,,0,10,10,7,,,,,,,,,,,,,,,,,None,,,,,,,,,,,,,,,,,,,,,,,,,None, delude,"['d', 'e', 'l', 'd', 'backspace', 'u', 'd', 'e', 'return']","[0.42569189984351397, 0.601235399954021, 0.7853536999318749, 1.1533399999607354, 1.5375397999305278, 1.8495128999929875, 1.905130699975416, 2.0417830999940634, 2.1455440998543054]",,,1,001,F,2023_Jan_31_0946,student_TT_local,2021.1.4,59.625314530267396,
,None,None,None,None,None,None,None,None,None,None,sherry,jackal,6.5,7.5,video&audio/sentence4_TT_3X.mp4,video&audio/hamlet_TT_3X.mp4,shroud,hamlet,None,,,,,,,,,,,,,,,,,,,,,,,,,,,,,,,,,,,,,,,,,,,,,,,,,,,,,,,,,,,0,11,11,9,,,,,,,,,,,,,,,,,None,,,,,,,,,,,,,,,,,,,,,,,,,None, hamlet,"['h', 'a', 'm', 'e', 'l', 'backspace', 'backspace', 'l', 'e', 't', 'return']","[0.6810691999271512, 1.2811757999006659, 1.3608327999245375, 1.5368536999449134, 1.6326353999320418, 2.009165500057861, 2.1366298000793904, 2.3686126999091357, 2.4731534998863935, 2.488808099878952, 2.9933982000220567]",,,1,001,F,2023_Jan_31_0946,student_TT_local,2021.1.4,59.625314530267396,
,None,None,None,None,None,None,None,None,None,None,binder,forage,19.5,20.5,video&audio/Sentence6_touch_edited.mp4,video&audio/campus_touch_edited.mp4,allure,campus,None,,,,,,,,,,,,,,,,,,,,,,,,,,,,,,,,,,,,,,,,,,,,,,,,,,,,,,,,,,,0,12,12,29,,,,,,,,,,,,,,,,,None,,,,,,,,,,,,,,,,,,,,,,,,,None, campus,"['c', 'a', 'm', 'p', 'u', 's', 'return']","[0.7246727999299765, 0.7891234001144767, 1.0687194999773055, 1.2286725000012666, 1.8049798000138253, 1.90882180002518, 2.0606424000579864]",,,1,001,F,2023_Jan_31_0946,student_TT_local,2021.1.4,59.625314530267396,
,None,None,None,None,None,None,None,None,None,None,goblet,botany,19.5,20.5,video&audio/Sentence4_touch_edited.mp4,video&audio/trench_touch_edited.mp4,ethnic,trench,None,,,,,,,,,,,,,,,,,,,,,,,,,,,,,,,,,,,,,,,,,,,,,,,,,,,,,,,,,,,0,13,13,27,,,,,,,,,,,,,,,,,None,,,,,,,,,,,,,,,,,,,,,,,,,None, trench,"['t', 'r', 'e', 'n', 'c', 'h', 'return']","[0.8841530000790954, 0.9400410000234842, 1.0361397000961006, 1.6200172998942435, 2.06827410007827, 2.1239785000216216, 2.3650511999148875]",,,1,001,F,2023_Jan_31_0946,student_TT_local,2021.1.4,59.625314530267396,
,None,None,None,None,None,None,None,None,None,None,upkeep,kipper,19.5,20.5,video&audio/Sentence2_touch_edited.mp4,video&audio/meddle_touch_edited.mp4,divert,meddle,None,,,,,,,,,,,,,,,,,,,,,,,,,,,,,,,,,,,,,,,,,,,,,,,,,,,,,,,,,,,0,14,14,25,,,,,,,,,,,,,,,,,None,,,,,,,,,,,,,,,,,,,,,,,,,None, meddle,"['m', 'e', 'd', 'd', 'l', 'e', 'return']","[0.5232212000992149, 0.6350239000748843, 0.859387299977243, 1.019901900086552, 1.1311220000497997, 1.2668749000877142, 1.5228824999649078]",,,1,001,F,2023_Jan_31_0946,student_TT_local,2021.1.4,59.625314530267396,
,None,None,None,None,None,None,None,None,None,None,convoy,plasma,19.5,20.5,video&audio/Sentence5_touch_edited.mp4,video&audio/jailer_touch_edited.mp4,nettle,jailer,None,,,,,,,,,,,,,,,,,,,,,,,,,,,,,,,,,,,,,,,,,,,,,,,,,,,,,,,,,,,0,15,15,16,,,,,,,,,,,,,,,,,None,,,,,,,,,,,,,,,,,,,,,,,,,None, jailor,"['j', 'a', 'i', 'l', 'o', 'r', 'return']","[0.7704018999356776, 0.8351700999774039, 0.9706876000855118, 1.1862057000398636, 1.3545256999786943, 1.4260829000268131, 1.6101297000423074]",,,1,001,F,2023_Jan_31_0946,student_TT_local,2021.1.4,59.625314530267396,
,None,None,None,None,None,None,None,None,None,None,sonnet,confer,6.5,7.5,video&audio/sentence1_TT_3X.mp4,video&audio/innate_TT_3X.mp4,tamper,innate,None,,,,,,,,,,,,,,,,,,,,,,,,,,,,,,,,,,,,,,,,,,,,,,,,,,,,,,,,,,,0,16,16,12,,,,,,,,,,,,,,,,,None,,,,,,,,,,,,,,,,,,,,,,,,,None, innate,"['i', 'n', 'n', 'a', 't', 'e', 'return']","[0.6745206001214683, 0.7544108000583947, 0.9386081001721323, 1.042351400014013, 1.122615500120446, 1.2023923001252115, 1.290699000004679]",,,1,001,F,2023_Jan_31_0946,student_TT_local,2021.1.4,59.625314530267396,
,None,None,None,None,None,None,None,None,None,None,deduct,hippie,6.5,7.5,video&audio/sentence3_TT_3X.mp4,video&audio/hearth_TT_3X.mp4,herbal,hearth,None,,,,,,,,,,,,,,,,,,,,,,,,,,,,,,,,,,,,,,,,,,,,,,,,,,,,,,,,,,,0,17,17,14,,,,,,,,,,,,,,,,,None,,,,,,,,,,,,,,,,,,,,,,,,,None, hearth,"['h', 'e', 'a', 'r', 't', 'h', 'return']","[0.7823988001327962, 0.8938943000975996, 1.006555800093338, 1.0781400001142174, 1.2695483001880348, 1.3335137001704425, 1.5336729001719505]",,,1,001,F,2023_Jan_31_0946,student_TT_local,2021.1.4,59.625314530267396,
,None,None,None,None,None,None,None,None,None,None,murmur,ritual,19.5,20.5,video&audio/Sentence6_touch_edited.mp4,video&audio/clergy_touch_edited.mp4,portal,clergy,None,,,,,,,,,,,,,,,,,,,,,,,,,,,,,,,,,,,,,,,,,,,,,,,,,,,,,,,,,,,0,18,18,17,,,,,,,,,,,,,,,,,None,,,,,,,,,,,,,,,,,,,,,,,,,None, clergy,"['c', 'l', 'e', 'r', 'g', 'y', 'return']","[0.8432863000780344, 0.9238603999838233, 1.0830184000078589, 1.2029866999946535, 1.5554271000437438, 1.6756160000804812, 2.0190439000725746]",,,1,001,F,2023_Jan_31_0946,student_TT_local,2021.1.4,59.625314530267396,
,None,None,None,None,None,None,None,None,None,None,novice,parcel,6.5,7.5,video&audio/sentence5_TT_3X.mp4,video&audio/primal_TT_3X.mp4,entail,primal,None,,,,,,,,,,,,,,,,,,,,,,,,,,,,,,,,,,,,,,,,,,,,,,,,,,,,,,,,,,,0,19,19,4,,,,,,,,,,,,,,,,,None,,,,,,,,,,,,,,,,,,,,,,,,,None, primal,"['p', 'r', 'i', 'm', 'a', 'l', 'return']","[0.7155887000262737, 0.8436729998793453, 0.9874996999278665, 1.0765325999818742, 1.2045036999043077, 1.3082683000247926, 1.5154085999820381]",,,1,001,F,2023_Jan_31_0946,student_TT_local,2021.1.4,59.625314530267396,
,None,None,None,None,None,None,None,None,None,None,brazen,piston,19.5,20.5,video&audio/Sentence3_touch_edited.mp4,video&audio/caviar_touch_edited.mp4,shrill,caviar,None,,,,,,,,,,,,,,,,,,,,,,,,,,,,,,,,,,,,,,,,,,,,,,,,,,,,,,,,,,,0,20,20,20,,,,,,,,,,,,,,,,,None,,,,,,,,,,,,,,,,,,,,,,,,,None, caviar,"['c', 'a', 'v', 'i', 'a', 'r', 'return']","[0.8160127999726683, 0.887925999937579, 1.0651213999371976, 1.191990999970585, 1.3279247998725623, 1.3843622000422329, 1.552370199933648]",,,1,001,F,2023_Jan_31_0946,student_TT_local,2021.1.4,59.625314530267396,
,None,None,None,None,None,None,None,None,None,None,infirm,pulpit,6.5,7.5,video&audio/sentence4_TT_3X.mp4,video&audio/oblige_TT_3X.mp4,mystic,oblige,None,,,,,,,,,,,,,,,,,,,,,,,,,,,,,,,,,,,,,,,,,,,,,,,,,,,,,,,,,,,0,21,21,3,,,,,,,,,,,,,,,,,None,,,,,,,,,,,,,,,,,,,,,,,,,None, oblige,"['o', 'b', 'l', 'i', 'g', 'e', 'return']","[0.8886285999324173, 1.0808624997735023, 1.2886130998376757, 1.5206201998516917, 1.6086327999364585, 1.6808890998363495, 1.8410154997836798]",,,1,001,F,2023_Jan_31_0946,student_TT_local,2021.1.4,59.625314530267396,
,None,None,None,None,None,None,None,None,None,None,pursue,debtor,19.5,20.5,video&audio/Sentence1_touch_edited.mp4,video&audio/output_touch_edited.mp4,uphold,output,None,,,,,,,,,,,,,,,,,,,,,,,,,,,,,,,,,,,,,,,,,,,,,,,,,,,,,,,,,,,0,22,22,18,,,,,,,,,,,,,,,,,None,,,,,,,,,,,,,,,,,,,,,,,,,None, output,"['o', 'u', 't', 'p', 'u', 't', 'return']","[0.826496200170368, 0.9213434001430869, 1.0335253002122045, 1.1853212001733482, 1.3851493000984192, 1.5852735000662506, 1.7051493001636118]",,,1,001,F,2023_Jan_31_0946,student_TT_local,2021.1.4,59.625314530267396,
,"While you watch the video, imagine yourself typing the word on the screen, like how you did in the imagery practice. While you watch the video and imagine this, rest your hands on your keyboard but DO NOT type until AFTER you see the typing prompt.

Press 'enter/return' to go to the next page.","While watching the video, imagine yourself typing the word on the screen, like how you did in the imagery practice. While you watch the video and imagine this, rest your hands on your keyboard but DO NOT type until AFTER you see the typing prompt.

Press 'enter/return' to go to the next page.",video&audio/Example_AOMI_imagine.png,1.6,1,butter,6.5,7.5,video&audio/amount_TT_3X.mp4,video&audio/butter_TT_3X.mp4,plight,ascend,6.5,7.5,video&audio/sentence2_TT_3X.mp4,video&audio/metric_TT_3X.mp4,eatery,metric,2 = AOMIspec,,,,,,,,,,,,,,,,,,,,,,,,,,,,,,,,,,,,,,,,,,,,,,,,,,,,,,,,,,,0,23,23,1,,,,,,,,,,,,,,,,,None,,,,,,,,,,,,,,,,,,,,,,,,,None, metric,"['m', 'e', 't', 'r', 'i', 'c', 'return']","[0.4183839000761509, 0.5144499000161886, 0.6505619001109153, 0.7547131001483649, 0.8984123000409454, 1.098414700012654, 1.2110575002152473]",,,1,001,F,2023_Jan_31_0946,student_TT_local,2021.1.4,59.625314530267396,
,None,None,None,None,None,None,None,None,None,None,satire,cortex,19.5,20.5,video&audio/Sentence4_touch_edited.mp4,video&audio/induce_touch_edited.mp4,mussel,induce,None,,,,,,,,,,,,,,,,,,,,,,,,,,,,,,,,,,,,,,,,,,,,,,,,,,,,,,,,,,,0,24,24,21,,,,,,,,,,,,,,,,,None,,,,,,,,,,,,,,,,,,,,,,,,,None, induce,"['i', 'n', 'd', 'u', 'c', 'e', 'return']","[0.48304449999704957, 0.6190376000013202, 0.6588227001484483, 0.8749989001080394, 1.0107334000058472, 1.0590112002100796, 1.4430135001894087]",,,1,001,F,2023_Jan_31_0946,student_TT_local,2021.1.4,59.625314530267396,
,None,None,None,None,None,None,None,None,None,None,revolt,virile,6.5,7.5,video&audio/sentence6_TT_3X.mp4,video&audio/joiner_TT_3X.mp4,apathy,joiner,None,,,,,,,,,,,,,,,,,,,,,,,,,,,,,,,,,,,,,,,,,,,,,,,,,,,,,,,,,,,0,25,25,5,,,,,,,,,,,,,,,,,None,,,,,,,,,,,,,,,,,,,,,,,,,None, joiner,"['j', 'o', 'i', 'n', 'e', 'r', 'return']","[0.8263272000476718, 0.9939566999673843, 1.0745149999856949, 1.297923699952662, 1.3708560999948531, 1.4508911999873817, 1.554835099959746]",,,1,001,F,2023_Jan_31_0946,student_TT_local,2021.1.4,59.625314530267396,
,None,None,None,None,None,None,None,None,None,None,mirage,malady,6.5,7.5,video&audio/sentence1_TT_3X.mp4,video&audio/shrewd_TT_3X.mp4,revoke,shrewd,None,,,,,,,,,,,,,,,,,,,,,,,,,,,,,,,,,,,,,,,,,,,,,,,,,,,,,,,,,,,0,26,26,6,,,,,,,,,,,,,,,,,None,,,,,,,,,,,,,,,,,,,,,,,,,None, shrewd,"['s', 'h', 'r', 'e', 'w', 'd', 'return']","[0.43325899983756244, 0.5298908997792751, 0.7134637997951359, 0.7612311998382211, 1.8014380999375135, 2.0971270999871194, 2.2814873999450356]",,,1,001,F,2023_Jan_31_0946,student_TT_local,2021.1.4,59.625314530267396,
,None,None,None,None,None,None,None,None,None,None,fodder,devise,19.5,20.5,video&audio/Sentence1_touch_edited.mp4,video&audio/mangle_touch_edited.mp4,warble,mangle,None,,,,,,,,,,,,,,,,,,,,,,,,,,,,,,,,,,,,,,,,,,,,,,,,,,,,,,,,,,,0,27,27,24,,,,,,,,,,,,,,,,,None,,,,,,,,,,,,,,,,,,,,,,,,,None, mangle,"['m', 'a', 'n', 'g', 'l', 'e', 'return']","[0.4824477999936789, 0.5465903000440449, 0.6985145001672208, 0.7948928000405431, 1.0022656000219285, 1.0830557001754642, 1.282320600003004]",,,1,001,F,2023_Jan_31_0946,student_TT_local,2021.1.4,59.625314530267396,
,None,None,None,None,None,None,None,None,None,None,impose,belfry,19.5,20.5,video&audio/Sentence6_touch_edited.mp4,video&audio/girdle_touch_edited.mp4,linear,girdle,None,,,,,,,,,,,,,,,,,,,,,,,,,,,,,,,,,,,,,,,,,,,,,,,,,,,,,,,,,,,0,28,28,23,,,,,,,,,,,,,,,,,None,,,,,,,,,,,,,,,,,,,,,,,,,None, girdle,"['g', 'i', 'r', 'd', 'l', 'e', 'return']","[0.37689329986460507, 0.4566902997903526, 0.6325516998767853, 0.9928227998316288, 1.0657217998523265, 1.2169652997981757, 1.3690980998799205]",,,1,001,F,2023_Jan_31_0946,student_TT_local,2021.1.4,59.625314530267396,
,None,None,None,None,None,None,None,None,None,None,critic,obsess,6.5,7.5,video&audio/sentence5_TT_3X.mp4,video&audio/zephyr_TT_3X.mp4,fusion,zephyr,None,,,,,,,,,,,,,,,,,,,,,,,,,,,,,,,,,,,,,,,,,,,,,,,,,,,,,,,,,,,0,29,29,10,,,,,,,,,,,,,,,,,None,,,,,,,,,,,,,,,,,,,,,,,,,None, zephyr,"['z', 'e', 'p', 'h', 'y', 'r', 'return']","[1.1920048000756651, 1.4474855998996645, 1.5513770000543445, 1.8875998998992145, 2.5283681999426335, 2.6713976999744773, 2.807911700103432]",,,1,001,F,2023_Jan_31_0946,student_TT_local,2021.1.4,59.625314530267396,
,,,,,,,,,,,,,,,,,,,,typingRatingScale.png,"How would you rate your typing performance in the previous section?

Press a number on your keyboard according to the rating scale below to give your answer. Your first answer will be accepted.",,,,,,,,,,,,,,,,,,,,,,,,,,,,,,,,,,,,,,,,,,,,,,,,,,,,,,,,,,,,,0,0,0,0,,,,,,,,,,,,,,,,,,,,,,,,,,,,,,,,,,,,,,,,,,['4'],[7.307474399916828],1,001,F,2023_Jan_31_0946,student_TT_local,2021.1.4,59.625314530267396,
,,,,,,,,,,,,,,,,,,,,visualImageryScale.png,"While imagining yourself typing, how clear was your visual image?

Press a number on your keyboard according to the rating scale below to give your answer. Your first answer will be accepted.",,,,,,,,,,,,,,,,,,,,,,,,,,,,,,,,,,,,,,,,,,,,,,,,,,,,,,,,,,,,,0,1,1,1,,,,,,,,,,,,,,,,,,,,,,,,,,,,,,,,,,,,,,,,,,['4'],[11.263959100004286],1,001,F,2023_Jan_31_0946,student_TT_local,2021.1.4,59.625314530267396,
,,,,,,,,,,,,,,,,,,,,kinestheticImageryScale.png,"While imagining yourself typing, how intense were the sensations associated with the imagined movement?

Press a number on your keyboard according to the rating scale below to give your answer. Your first answer will be accepted.",,,,,,,,,,,,,,,,,,,,,,,,,,,,,,,,,,,,,,,,,,,,,,,,,,,,,,,,,,,,,0,2,2,2,,,,,,,,,,,,,,,,,,,,,,,,,,,,,,,,,,,,,,,,,,['4'],[6.376430199947208],1,001,F,2023_Jan_31_0946,student_TT_local,2021.1.4,59.625314530267396,
