pracWords,instr_1,instr_2,AOMI_Ima,AOMI_w,AOMI_h,practiceWords,prac_time,prac_bkgd_time,pracVid_1,pracVid_2,baseline_words,control_words,cont_time,cont_bgkd_time,first_vids,second_vids,AOMIfirst_words,AOMIsecond_words,Order,ratingScale,rateInstr,instructLoop.thisRepN,instructLoop.thisTrialN,instructLoop.thisN,instructLoop.thisIndex,practice_control.thisRepN,practice_control.thisTrialN,practice_control.thisN,practice_control.thisIndex,trials_1.thisRepN,trials_1.thisTrialN,trials_1.thisN,trials_1.thisIndex,baseRateLoop.thisRepN,baseRateLoop.thisTrialN,baseRateLoop.thisN,baseRateLoop.thisIndex,AOMIinstrLoop1.thisRepN,AOMIinstrLoop1.thisTrialN,AOMIinstrLoop1.thisN,AOMIinstrLoop1.thisIndex,AOMIpracLoop.thisRepN,AOMIpracLoop.thisTrialN,AOMIpracLoop.thisN,AOMIpracLoop.thisIndex,trials_2.thisRepN,trials_2.thisTrialN,trials_2.thisN,trials_2.thisIndex,AOMI1rateLoop.thisRepN,AOMI1rateLoop.thisTrialN,AOMI1rateLoop.thisN,AOMI1rateLoop.thisIndex,contInstrLoop.thisRepN,contInstrLoop.thisTrialN,contInstrLoop.thisN,contInstrLoop.thisIndex,contPracLoop.thisRepN,contPracLoop.thisTrialN,contPracLoop.thisN,contPracLoop.thisIndex,trials_3.thisRepN,trials_3.thisTrialN,trials_3.thisN,trials_3.thisIndex,contRateLoop.thisRepN,contRateLoop.thisTrialN,contRateLoop.thisN,contRateLoop.thisIndex,AOMIinstrLoop2.thisRepN,AOMIinstrLoop2.thisTrialN,AOMIinstrLoop2.thisN,AOMIinstrLoop2.thisIndex,AOMIpracLoop2.thisRepN,AOMIpracLoop2.thisTrialN,AOMIpracLoop2.thisN,AOMIpracLoop2.thisIndex,trials_4.thisRepN,trials_4.thisTrialN,trials_4.thisN,trials_4.thisIndex,AOMI2rateLoop.thisRepN,AOMI2rateLoop.thisTrialN,AOMI2rateLoop.thisN,AOMI2rateLoop.thisIndex,pracBkgdKeys.keys,pracKeys.keys,pracKeys.rt,pracBkgdKeys.rt,baseBkgdKeys.keys,base_typedWord,baseKeys.keys,baseKeys.rt,baseRateTypeKey.keys,baseRateTypeKey.rt,AOMI1_BkgdKeys.keys,AOMI_promptBkgdKeys.keys,AOMI1pracKeys.keys,AOMI1pracKeys.rt,AOMI1bkdgKeys.keys,AOMI1_typedWord,AOMI1keys.keys,AOMI1keys.rt,AOMI1rateTypeKey.keys,AOMI1rateTypeKey.rt,polygon_prac.started,polygon_prac.stopped,contBkgdKeys_prac.keys,contPrac_typedWord,contKeys_prac.keys,contKeys_prac.rt,polygon.started,polygon.stopped,contBkgdKeys.keys,cont_typedWord,contKeys.keys,contKeys.rt,contTypeKey.keys,contTypeKey.rt,bkgdkeys_prac2.keys,AOMI_promptBkgdKeys.rt,bkgdKeys4.keys,AOMI2_typedWord,keyboardCom4.keys,keyboardCom4.rt,AOMI2typeKey.keys,AOMI2typeKey.rt,participant,session,group,date,expName,psychopyVersion,frameRate,
height,,,,,,,,,,,,,,,,,,,,,,,,,,0,0,0,0,,,,,,,,,,,,,,,,,,,,,,,,,,,,,,,,,,,,,,,,,,,,,,,,,,,,,,,,,None,"['h', 'e', 'i', 'g', 'h', 't', 'return']","[1.3429055998567492, 1.670927600003779, 2.0390514000318944, 2.4879985998850316, 2.758875499945134, 3.0629519999492913, 4.38306779996492]",,,,,,,,,,,,,,,,,,,,,,,,,,,,,,,,,,,,,,,,20,001,B,2023_Jan_31_1144,student_TT_local,2021.1.4,59.93561715822562,
replay,,,,,,,,,,,,,,,,,,,,,,,,,,0,1,1,1,,,,,,,,,,,,,,,,,,,,,,,,,,,,,,,,,,,,,,,,,,,,,,,,,,,,,,,,,"['r', 'e', 'p', 'l', 'a']","['y', 'backspace', 'r', 'e', 'p', 'l', 'a', 'y', 'return']","[0.09450719994492829, 2.070797099964693, 4.086530700093135, 4.551053399918601, 5.438666800037026, 5.718367399880663, 6.0302090998739, 6.334713799878955, 7.246432499960065]","[1.5942754000425339, 1.7866449002176523, 2.0829427000135183, 2.466388500062749, 2.6832336001098156]",,,,,,,,,,,,,,,,,,,,,,,,,,,,,,,,,,,,,,,20,001,B,2023_Jan_31_1144,student_TT_local,2021.1.4,59.93561715822562,
update,,,,,,,,,,,,,,,,,,,,,,,,,,0,2,2,2,,,,,,,,,,,,,,,,,,,,,,,,,,,,,,,,,,,,,,,,,,,,,,,,,,,,,,,,,None,"['u', 'p', 'd', 'a', 't', 'e', 'return']","[0.9347886999603361, 1.608043999876827, 1.9831363998819143, 2.519055699929595, 2.8549840999767184, 3.2068922999314964, 3.854955199873075]",,,,,,,,,,,,,,,,,,,,,,,,,,,,,,,,,,,,,,,,20,001,B,2023_Jan_31_1144,student_TT_local,2021.1.4,59.93561715822562,
,"This is Section 2.

In this section, your task will be the same as before - that is, to type the word you see on the screen AFTER the typing prompt. However, rather than just seeing the word before typing, you will also see a video of someone typing different words to what you will need to type at different speeds. 

Press 'enter/return' to go to the next page.","This is Section 4. 

In this section, your task will be the same as before - that is, to type the word you see on the screen after the typing prompt. You will see a video again, like in Section 2, only this time, the video will show someone the same word that you must type at different speeds. 

Press 'enter/return' to go to the next page.",video&audio/Example_AOMI_layout.png,1.6,0.6,afford,19.5,20.5,video&audio/amount_touch_edited.mp4,video&audio/afford_touch_edited.mp4,hinder,vanity,19.5,20.5,video&audio/Sentence1_touch_edited.mp4,video&audio/ascend_touch_edited.mp4,breach,ascend,1 = AOMIgen,,,,,,,,,,,0,0,0,0,,,,,,,,,,,,,,,,,,,,,,,,,,,,,,,,,,,,,,,,,,,,,,,,,,,,,,,,,None, hinder,"['h', 'i', 'n', 'd', 'e', 'r', 'return']","[0.7471525000873953, 1.0598470999393612, 1.3627684998791665, 1.5791193000040948, 1.9630163998808712, 2.2348954998888075, 3.1242327999789268]",,,,,,,,,,,,,,,,,,,,,,,,,,,,,,,,,,,20,001,B,2023_Jan_31_1144,student_TT_local,2021.1.4,59.93561715822562,
,None,None,None,None,None,None,None,None,None,None,meddle,musket,6.5,7.5,video&audio/sentence2_TT_3X.mp4,video&audio/solemn_TT_3X.mp4,divert,solemn,None,,,,,,,,,,,0,1,1,25,,,,,,,,,,,,,,,,,,,,,,,,,,,,,,,,,,,,,,,,,,,,,,,,,,,,,,,,,None, meddle,"['m', 'e', 'd', 'd', 'l', 'e', 'return']","[0.8665084999520332, 1.1547478998545557, 1.58653760002926, 1.8036837000399828, 2.3546076000202447, 2.5864011999219656, 3.107336499961093]",,,,,,,,,,,,,,,,,,,,,,,,,,,,,,,,,,,20,001,B,2023_Jan_31_1144,student_TT_local,2021.1.4,59.93561715822562,
,None,None,None,None,None,None,None,None,None,None,tandem,potent,6.5,7.5,video&audio/sentence4_TT_3X.mp4,video&audio/malady_TT_3X.mp4,origin,malady,None,,,,,,,,,,,0,2,2,15,,,,,,,,,,,,,,,,,,,,,,,,,,,,,,,,,,,,,,,,,,,,,,,,,,,,,,,,,None, tandem,"['t', 'a', 'n', 'd', 'e', 'm', 'return']","[0.9018361000344157, 1.4304704000242054, 1.6942511000670493, 1.9262571001891047, 2.1583742999937385, 2.3584948000498116, 3.142295500030741]",,,,,,,,,,,,,,,,,,,,,,,,,,,,,,,,,,,20,001,B,2023_Jan_31_1144,student_TT_local,2021.1.4,59.93561715822562,
,None,None,None,None,None,None,None,None,None,None,zephyr,sherry,19.5,20.5,video&audio/Sentence5_touch_edited.mp4,video&audio/forage_touch_edited.mp4,fusion,forage,None,,,,,,,,,,,0,3,3,10,,,,,,,,,,,,,,,,,,,,,,,,,,,,,,,,,,,,,,,,,,,,,,,,,,,,,,,,,None, zephyr,"['z', 'e', 'h', 'y', 'r', 'return']","[1.01248520007357, 1.4126005999278277, 3.1881254999898374, 3.5485447000246495, 4.716156299924478, 5.74878180003725]",,,,,,,,,,,,,,,,,,,,,,,,,,,,,,,,,,,20,001,B,2023_Jan_31_1144,student_TT_local,2021.1.4,59.93561715822562,
,None,None,None,None,None,None,None,None,None,None,campus,legion,6.5,7.5,video&audio/sentence6_TT_3X.mp4,video&audio/virile_TT_3X.mp4,allure,virile,None,,,,,,,,,,,0,4,4,29,,,,,,,,,,,,,,,,,,,,,,,,,,,,,,,,,,,,,,,,,,,,,,,,,,,,,,,,,None, campus,"['c', 'a', 'm', 'p', 'u', 's', 'return']","[1.00787919992581, 1.3439005999825895, 1.5848495999816805, 2.2002872000448406, 2.584654599893838, 2.799914199858904, 3.7126986000221223]",,,,,,,,,,,,,,,,,,,,,,,,,,,,,,,,,,,20,001,B,2023_Jan_31_1144,student_TT_local,2021.1.4,59.93561715822562,
,None,None,None,None,None,None,None,None,None,None,innate,critic,19.5,20.5,video&audio/Sentence1_touch_edited.mp4,video&audio/hippie_touch_edited.mp4,tamper,hippie,None,,,,,,,,,,,0,5,5,12,,,,,,,,,,,,,,,,,,,,,,,,,,,,,,,,,,,,,,,,,,,,,,,,,,,,,,,,,None, innate,"['i', 'n', 'n', 'a', 't', 'e', 'return']","[0.8367811001371592, 1.1175293000414968, 1.3101795001421124, 1.6849893000908196, 1.956845800159499, 2.2298678001388907, 2.957427600165829]",,,,,,,,,,,,,,,,,,,,,,,,,,,,,,,,,,,20,001,B,2023_Jan_31_1144,student_TT_local,2021.1.4,59.93561715822562,
,"Remember to type as QUICKLY and ACCURATELY as possible after the 'get ready' prompt.

Ask the experimenter any questions now. Please put on the headphones.

You will get one practice trial. Press 'enter/return' when you are ready to start the practice.","Remember to type as QUICKLY and ACCURATELY as you can after the 'get ready' prompt.

Ask the experimenter any questions now. Please put on the headphones.

You will get one practice trial. Press 'enter/return' when you are ready to start the practice.",video&audio/Example_AOMI_total.png,1.8,0.7,None,None,None,None,None,oppose,jargon,19.5,20.5,video&audio/Sentence3_touch_edited.mp4,video&audio/botany_touch_edited.mp4,ghetto,botany,None,,,,,,,,,,,0,6,6,2,,,,,,,,,,,,,,,,,,,,,,,,,,,,,,,,,,,,,,,,,,,,,,,,,,,,,,,,,None, oppose,"['o', 'p', 'p', 'o', 's', 'e', 'return']","[0.7452490997966379, 1.0973888000007719, 1.2492750999517739, 1.4986316999420524, 1.713691699784249, 2.4019037999678403, 3.233716399874538]",,,,,,,,,,,,,,,,,,,,,,,,,,,,,,,,,,,20,001,B,2023_Jan_31_1144,student_TT_local,2021.1.4,59.93561715822562,
,"While you watch the video, imagine yourself typing the word on the screen, like how you did in the imagery practice. While you watch the video and imagine this, rest your hands on your keyboard but DO NOT type until AFTER you see the typing prompt.

Press 'enter/return' to go to the next page.","While watching the video, imagine yourself typing the word on the screen, like how you did in the imagery practice. While you watch the video and imagine this, rest your hands on your keyboard but DO NOT type until AFTER you see the typing prompt.

Press 'enter/return' to go to the next page.",video&audio/Example_AOMI_imagine.png,1.6,1,butter,6.5,7.5,video&audio/amount_TT_3X.mp4,video&audio/butter_TT_3X.mp4,metric,plight,19.5,20.5,video&audio/Sentence2_touch_edited.mp4,video&audio/belfry_touch_edited.mp4,eatery,belfry,2 = AOMIspec,,,,,,,,,,,0,7,7,1,,,,,,,,,,,,,,,,,,,,,,,,,,,,,,,,,,,,,,,,,,,,,,,,,,,,,,,,,None, metric,"['m', 'e', 't', 'r', 'i', 'c', 'return']","[1.0917377001605928, 1.7156720000784844, 2.2370917999651283, 2.483871400123462, 2.843723600031808, 3.156353499973193, 4.083588100038469]",,,,,,,,,,,,,,,,,,,,,,,,,,,,,,,,,,,20,001,B,2023_Jan_31_1144,student_TT_local,2021.1.4,59.93561715822562,
,None,None,None,None,None,None,None,None,None,None,jailer,deduct,6.5,7.5,video&audio/sentence5_TT_3X.mp4,video&audio/neural_TT_3X.mp4,nettle,neural,None,,,,,,,,,,,0,8,8,16,,,,,,,,,,,,,,,,,,,,,,,,,,,,,,,,,,,,,,,,,,,,,,,,,,,,,,,,,None, jailer,"['j', 'a', 'i', 'l', 'e', 'r', 'return']","[0.9821450999006629, 1.389869499951601, 2.2057141999248415, 2.4695229998324066, 3.061960899969563, 3.237512599909678, 4.053513599792495]",,,,,,,,,,,,,,,,,,,,,,,,,,,,,,,,,,,20,001,B,2023_Jan_31_1144,student_TT_local,2021.1.4,59.93561715822562,
,None,None,None,None,None,None,None,None,None,None,parish,upkeep,6.5,7.5,video&audio/sentence5_TT_3X.mp4,video&audio/tariff_TT_3X.mp4,gullet,tariff,None,,,,,,,,,,,0,9,9,28,,,,,,,,,,,,,,,,,,,,,,,,,,,,,,,,,,,,,,,,,,,,,,,,,,,,,,,,,None, parish,"['p', 'a', 'r', 'i', 's', 'h', 'return']","[1.0344022999051958, 1.3467093999497592, 1.5701967999339104, 1.8438781998120248, 2.394532599952072, 2.6029100997839123, 3.658468599896878]",,,,,,,,,,,,,,,,,,,,,,,,,,,,,,,,,,,20,001,B,2023_Jan_31_1144,student_TT_local,2021.1.4,59.93561715822562,
,None,None,None,None,None,None,None,None,None,None,befall,goblet,19.5,20.5,video&audio/Sentence3_touch_edited.mp4,video&audio/devise_touch_edited.mp4,ration,devise,None,,,,,,,,,,,0,10,10,8,,,,,,,,,,,,,,,,,,,,,,,,,,,,,,,,,,,,,,,,,,,,,,,,,,,,,,,,,None, befall,"['b', 'e', 'f', 'a', 'l', 'l', 'return']","[0.8826180000323802, 1.122575300047174, 1.4668028999585658, 1.8747334000654519, 2.2423177000600845, 2.442362899892032, 3.2508330999407917]",,,,,,,,,,,,,,,,,,,,,,,,,,,,,,,,,,,20,001,B,2023_Jan_31_1144,student_TT_local,2021.1.4,59.93561715822562,
,None,None,None,None,None,None,None,None,None,None,cobble,murmur,6.5,7.5,video&audio/sentence2_TT_3X.mp4,video&audio/picket_TT_3X.mp4,export,picket,None,,,,,,,,,,,0,11,11,19,,,,,,,,,,,,,,,,,,,,,,,,,,,,,,,,,,,,,,,,,,,,,,,,,,,,,,,,,None, cobble,"['c', 'o', 'b', 'b', 'l', 'e', 'return']","[0.9609907998237759, 1.2413886999711394, 1.5208286999259144, 1.7293345998041332, 1.9772027998697013, 2.3373648999258876, 2.969349999912083]",,,,,,,,,,,,,,,,,,,,,,,,,,,,,,,,,,,20,001,B,2023_Jan_31_1144,student_TT_local,2021.1.4,59.93561715822562,
,None,None,None,None,None,None,None,None,None,None,trench,fodder,6.5,7.5,video&audio/sentence4_TT_3X.mp4,video&audio/subtle_TT_3X.mp4,ethnic,subtle,None,,,,,,,,,,,0,12,12,27,,,,,,,,,,,,,,,,,,,,,,,,,,,,,,,,,,,,,,,,,,,,,,,,,,,,,,,,,None, trench,"['t', 'r', 'e', 'n', 'c', 'h', 'return']","[0.9421182998921722, 1.2062697999645025, 1.526151399826631, 1.7581468999851495, 2.318718299968168, 2.5425190997775644, 3.319003799930215]",,,,,,,,,,,,,,,,,,,,,,,,,,,,,,,,,,,20,001,B,2023_Jan_31_1144,student_TT_local,2021.1.4,59.93561715822562,
,None,None,None,None,None,None,None,None,None,None,feudal,impose,6.5,7.5,video&audio/sentence3_TT_3X.mp4,video&audio/subdue_TT_3X.mp4,matron,subdue,None,,,,,,,,,,,0,13,13,26,,,,,,,,,,,,,,,,,,,,,,,,,,,,,,,,,,,,,,,,,,,,,,,,,,,,,,,,,None, feudal,"['f', 'e', 'u', 'd', 'a', 'l', 'return']","[0.7166207998525351, 0.9486676000524312, 1.181041199946776, 1.4521838000509888, 1.6610194998793304, 1.9561348999850452, 2.9080980999860913]",,,,,,,,,,,,,,,,,,,,,,,,,,,,,,,,,,,20,001,B,2023_Jan_31_1144,student_TT_local,2021.1.4,59.93561715822562,
,None,None,None,None,None,None,None,None,None,None,joiner,revolt,19.5,20.5,video&audio/Sentence6_touch_edited.mp4,video&audio/cortex_touch_edited.mp4,apathy,cortex,None,,,,,,,,,,,0,14,14,5,,,,,,,,,,,,,,,,,,,,,,,,,,,,,,,,,,,,,,,,,,,,,,,,,,,,,,,,,None, joiner,"['j', 'o', 'i', 'n', 'e', 'r', 'return']","[0.7242241001222283, 0.9878947001416236, 1.236118600005284, 1.4838262000121176, 1.6603771999944001, 1.8358390000648797, 2.8443345001433045]",,,,,,,,,,,,,,,,,,,,,,,,,,,,,,,,,,,20,001,B,2023_Jan_31_1144,student_TT_local,2021.1.4,59.93561715822562,
,None,None,None,None,None,None,None,None,None,None,output,convoy,6.5,7.5,video&audio/sentence1_TT_3X.mp4,video&audio/parcel_TT_3X.mp4,uphold,parcel,None,,,,,,,,,,,0,15,15,18,,,,,,,,,,,,,,,,,,,,,,,,,,,,,,,,,,,,,,,,,,,,,,,,,,,,,,,,,None, output,"['o', 'u', 't', 'p', 'u', 't', 'return']","[1.059125600149855, 1.3857707001734525, 1.6898016000632197, 2.0828839000314474, 2.3631693001370877, 2.5537914000451565, 3.4338402000721544]",,,,,,,,,,,,,,,,,,,,,,,,,,,,,,,,,,,20,001,B,2023_Jan_31_1144,student_TT_local,2021.1.4,59.93561715822562,
,None,None,None,None,None,None,None,None,None,None,mangle,satire,6.5,7.5,video&audio/sentence1_TT_3X.mp4,video&audio/ritual_TT_3X.mp4,warble,ritual,None,,,,,,,,,,,0,16,16,24,,,,,,,,,,,,,,,,,,,,,,,,,,,,,,,,,,,,,,,,,,,,,,,,,,,,,,,,,None, mangle,"['m', 'a', 'n', 'g', 'l', 'e', 'return']","[1.0533502001781017, 1.4534364000428468, 1.6531491000205278, 1.989275500178337, 2.3658701002132148, 2.621126100188121, 3.6300655000377446]",,,,,,,,,,,,,,,,,,,,,,,,,,,,,,,,,,,20,001,B,2023_Jan_31_1144,student_TT_local,2021.1.4,59.93561715822562,
,None,None,None,None,None,None,None,None,None,None,induce,savant,6.5,7.5,video&audio/sentence4_TT_3X.mp4,video&audio/plasma_TT_3X.mp4,mussel,plasma,None,,,,,,,,,,,0,17,17,21,,,,,,,,,,,,,,,,,,,,,,,,,,,,,,,,,,,,,,,,,,,,,,,,,,,,,,,,,None, induce,"['i', 'n', 'd', 'u', 'c', 'e', 'return']","[0.9957485001068562, 1.2757407000754029, 1.508410400012508, 1.7713574001099914, 2.0439850999973714, 2.412226499989629, 3.156682100147009]",,,,,,,,,,,,,,,,,,,,,,,,,,,,,,,,,,,20,001,B,2023_Jan_31_1144,student_TT_local,2021.1.4,59.93561715822562,
,None,None,None,None,None,None,None,None,None,None,girdle,manure,6.5,7.5,video&audio/sentence6_TT_3X.mp4,video&audio/pulpit_TT_3X.mp4,linear,pulpit,None,,,,,,,,,,,0,18,18,23,,,,,,,,,,,,,,,,,,,,,,,,,,,,,,,,,,,,,,,,,,,,,,,,,,,,,,,,,None, girdle,"['g', 'i', 'r', 'd', 'l', 'e', 'return']","[1.0698959999717772, 1.398049300070852, 1.670031800167635, 2.4538696000818163, 2.7262790000531822, 2.8789382001850754, 3.5825966000556946]",,,,,,,,,,,,,,,,,,,,,,,,,,,,,,,,,,,20,001,B,2023_Jan_31_1144,student_TT_local,2021.1.4,59.93561715822562,
,None,None,None,None,None,None,None,None,None,None,oblige,infirm,19.5,20.5,video&audio/Sentence4_touch_edited.mp4,video&audio/cervix_touch_edited.mp4,mystic,cervix,None,,,,,,,,,,,0,19,19,3,,,,,,,,,,,,,,,,,,,,,,,,,,,,,,,,,,,,,,,,,,,,,,,,,,,,,,,,,None, oblige,"['o', 'b', 'l', 'i', 'g', 'e', 'return']","[0.9925855998881161, 1.2806657999753952, 1.5287132000084966, 1.8569698999635875, 2.0411220998503268, 2.2409314999822527, 3.1128124999813735]",,,,,,,,,,,,,,,,,,,,,,,,,,,,,,,,,,,20,001,B,2023_Jan_31_1144,student_TT_local,2021.1.4,59.93561715822562,
,None,None,None,None,None,None,None,None,None,None,patent,binder,19.5,20.5,video&audio/Sentence6_touch_edited.mp4,video&audio/frugal_touch_edited.mp4,defame,frugal,None,,,,,,,,,,,0,20,20,11,,,,,,,,,,,,,,,,,,,,,,,,,,,,,,,,,,,,,,,,,,,,,,,,,,,,,,,,,None, patent,"['p', 'a', 't', 'e', 'n', 't', 'return']","[1.0319401999004185, 1.3040040999185294, 1.6960010000038892, 1.9936315000522882, 2.256107799941674, 2.415753199951723, 3.472896199906245]",,,,,,,,,,,,,,,,,,,,,,,,,,,,,,,,,,,20,001,B,2023_Jan_31_1144,student_TT_local,2021.1.4,59.93561715822562,
,None,None,None,None,None,None,None,None,None,None,hearth,sonnet,19.5,20.5,video&audio/Sentence3_touch_edited.mp4,video&audio/kipper_touch_edited.mp4,herbal,kipper,None,,,,,,,,,,,0,21,21,14,,,,,,,,,,,,,,,,,,,,,,,,,,,,,,,,,,,,,,,,,,,,,,,,,,,,,,,,,None, hearth,"['h', 'e', 'a', 'r', 't', 'h', 'return']","[0.6713044999632984, 0.8954038999509066, 1.2472477999981493, 1.4875062999781221, 1.7681464001070708, 1.9995341999456286, 2.736294500064105]",,,,,,,,,,,,,,,,,,,,,,,,,,,,,,,,,,,20,001,B,2023_Jan_31_1144,student_TT_local,2021.1.4,59.93561715822562,
,None,None,None,None,None,None,None,None,None,None,primal,novice,19.5,20.5,video&audio/Sentence5_touch_edited.mp4,video&audio/confer_touch_edited.mp4,entail,confer,None,,,,,,,,,,,0,22,22,4,,,,,,,,,,,,,,,,,,,,,,,,,,,,,,,,,,,,,,,,,,,,,,,,,,,,,,,,,None, primal,"['p', 'r', 'i', 'm', 'a', 'l', 'return']","[0.911621900042519, 1.2078568001743406, 1.4154307001736015, 1.704221600200981, 2.527728100074455, 2.759648500010371, 3.879547400167212]",,,,,,,,,,,,,,,,,,,,,,,,,,,,,,,,,,,20,001,B,2023_Jan_31_1144,student_TT_local,2021.1.4,59.93561715822562,
,None,None,None,None,None,None,None,None,None,None,caviar,pursue,6.5,7.5,video&audio/sentence3_TT_3X.mp4,video&audio/piston_TT_3X.mp4,shrill,piston,None,,,,,,,,,,,0,23,23,20,,,,,,,,,,,,,,,,,,,,,,,,,,,,,,,,,,,,,,,,,,,,,,,,,,,,,,,,,None, caviar,"['c', 'a', 'v', 'i', 'a', 'r', 'return']","[1.3143537000287324, 1.61865200009197, 2.0582707000430673, 2.4423460999969393, 2.850721900118515, 3.2829701001755893, 4.450806500157341]",,,,,,,,,,,,,,,,,,,,,,,,,,,,,,,,,,,20,001,B,2023_Jan_31_1144,student_TT_local,2021.1.4,59.93561715822562,
,None,None,None,None,None,None,None,None,None,None,hamlet,parole,19.5,20.5,video&audio/Sentence4_touch_edited.mp4,video&audio/falter_touch_edited.mp4,shroud,falter,None,,,,,,,,,,,0,24,24,9,,,,,,,,,,,,,,,,,,,,,,,,,,,,,,,,,,,,,,,,,,,,,,,,,,,,,,,,,None, hamlet,"['h', 'a', 'm', 'l', 'e', 't', 'return']","[0.9661946000996977, 1.286631700117141, 1.6701643001288176, 2.0222483000252396, 2.5100698000751436, 2.8626807001419365, 3.702312100213021]",,,,,,,,,,,,,,,,,,,,,,,,,,,,,,,,,,,20,001,B,2023_Jan_31_1144,student_TT_local,2021.1.4,59.93561715822562,
,None,None,None,None,None,None,None,None,None,None,shrewd,mirage,19.5,20.5,video&audio/Sentence1_touch_edited.mp4,video&audio/covert_touch_edited.mp4,revoke,covert,None,,,,,,,,,,,0,25,25,6,,,,,,,,,,,,,,,,,,,,,,,,,,,,,,,,,,,,,,,,,,,,,,,,,,,,,,,,,None, shrewd,"['s', 'h', 'r', 'e', 'w', 'd', 'return']","[1.2573338001966476, 1.5380355000961572, 1.913088500034064, 2.1937630001921207, 2.673369999974966, 3.625635800184682, 4.42563010007143]",,,,,,,,,,,,,,,,,,,,,,,,,,,,,,,,,,,20,001,B,2023_Jan_31_1144,student_TT_local,2021.1.4,59.93561715822562,
,None,None,None,None,None,None,None,None,None,None,septic,quarry,19.5,20.5,video&audio/Sentence2_touch_edited.mp4,video&audio/jackal_touch_edited.mp4,ordain,jackal,None,,,,,,,,,,,0,26,26,13,,,,,,,,,,,,,,,,,,,,,,,,,,,,,,,,,,,,,,,,,,,,,,,,,,,,,,,,,None, septic,"['s', 'e', 'p', 't', 'i', 'c', 'return']","[0.8966050997842103, 1.232918499968946, 1.7130616998765618, 2.168677099980414, 2.4417719999328256, 3.241356899961829, 4.0806276998482645]",,,,,,,,,,,,,,,,,,,,,,,,,,,,,,,,,,,20,001,B,2023_Jan_31_1144,student_TT_local,2021.1.4,59.93561715822562,
,None,None,None,None,None,None,None,None,None,None,clergy,coerce,6.5,7.5,video&audio/sentence6_TT_3X.mp4,video&audio/obsess_TT_3X.mp4,portal,obsess,None,,,,,,,,,,,0,27,27,17,,,,,,,,,,,,,,,,,,,,,,,,,,,,,,,,,,,,,,,,,,,,,,,,,,,,,,,,,None, clergy,"['c', 'l', 'e', 'r', 'g', 'u', 'backspace', 'y', 'return']","[1.163853800157085, 1.3877894000615925, 1.6452050001826137, 1.7960932001005858, 2.1798027001786977, 2.4122125001158565, 3.428491699974984, 3.8518485999666154, 5.58801249996759]",,,,,,,,,,,,,,,,,,,,,,,,,,,,,,,,,,,20,001,B,2023_Jan_31_1144,student_TT_local,2021.1.4,59.93561715822562,
,None,None,None,None,None,None,None,None,None,None,fungal,brazen,6.5,7.5,video&audio/sentence5_TT_3X.mp4,video&audio/matrix_TT_3X.mp4,mucous,matrix,None,,,,,,,,,,,0,28,28,22,,,,,,,,,,,,,,,,,,,,,,,,,,,,,,,,,,,,,,,,,,,,,,,,,,,,,,,,,None, fungal,"['f', 'u', 'n', 'g', 'a', 'l', 'return']","[1.1707403000909835, 1.4670357001014054, 1.7628860999830067, 1.9793901999946684, 2.7308559000957757, 2.9628620001021773, 3.7471098999958485]",,,,,,,,,,,,,,,,,,,,,,,,,,,,,,,,,,,20,001,B,2023_Jan_31_1144,student_TT_local,2021.1.4,59.93561715822562,
,None,None,None,None,None,None,None,None,None,None,delude,strife,19.5,20.5,video&audio/Sentence2_touch_edited.mp4,video&audio/debtor_touch_edited.mp4,galley,debtor,None,,,,,,,,,,,0,29,29,7,,,,,,,,,,,,,,,,,,,,,,,,,,,,,,,,,,,,,,,,,,,,,,,,,,,,,,,,,None, delude,"['d', 'e', 'l', 'u', 'd', 'e', 'return']","[0.8280844998080283, 1.0601641000248492, 1.3716388000175357, 1.7646180998999625, 1.972756699891761, 2.147831699810922, 3.180333500029519]",,,,,,,,,,,,,,,,,,,,,,,,,,,,,,,,,,,20,001,B,2023_Jan_31_1144,student_TT_local,2021.1.4,59.93561715822562,
,,,,,,,,,,,,,,,,,,,,typingRatingScale.png,"How would you rate your typing performance in the previous section?

Press a number on your keyboard according to the rating scale below to give your answer. Your first answer will be accepted.",,,,,,,,,,,,,0,0,0,0,,,,,,,,,,,,,,,,,,,,,,,,,,,,,,,,,,,,,,,,,,,,,,,,,,,,,,,,,['5'],[22.96018989989534],,,,,,,,,,,,,,,,,,,,,,,,,,,,,,,,,20,001,B,2023_Jan_31_1144,student_TT_local,2021.1.4,59.93561715822562,
,,,,,,,,,,,,,,,,,,,,imageryCheckScale.png,"In the previous section did you imagine yourself typing?

Press a number on your keyboard according to the rating scale below to give your answer. Your first answer will be accepted.",,,,,,,,,,,,,0,1,1,1,,,,,,,,,,,,,,,,,,,,,,,,,,,,,,,,,,,,,,,,,,,,,,,,,,,,,,,,,['3'],[17.514581100083888],,,,,,,,,,,,,,,,,,,,,,,,,,,,,,,,,20,001,B,2023_Jan_31_1144,student_TT_local,2021.1.4,59.93561715822562,
,None,None,None,None,None,None,None,None,None,None,output,convoy,6.5,7.5,video&audio/sentence1_TT_3X.mp4,video&audio/parcel_TT_3X.mp4,uphold,parcel,None,,,,,,,,,,,,,,,,,,,,,,,,,,,0,0,0,18,,,,,,,,,,,,,,,,,,,,,,,,,,,,,,,,,,,,,,,,,,,,,,,None,None,"['b', 'u', 't', 't', 'e', 'r', 'return']","[1.0963216999080032, 1.489565199939534, 1.7841123000252992, 2.128834299976006, 2.4249610998667777, 2.8083291999064386, 3.5926179999951273]",None, uphold,"['u', 'p', 'h', 'o', 'l', 'd', 'return']","[0.9548981999978423, 1.3781902000773698, 1.7233330002054572, 1.9859054000116885, 2.242540800012648, 2.434014300117269, 3.522455000085756]",,,,,,,,,,,,,,,,,,,,,,,,,20,001,B,2023_Jan_31_1144,student_TT_local,2021.1.4,59.93561715822562,
,None,None,None,None,None,None,None,None,None,None,caviar,pursue,6.5,7.5,video&audio/sentence3_TT_3X.mp4,video&audio/piston_TT_3X.mp4,shrill,piston,None,,,,,,,,,,,,,,,,,,,,,,,,,,,0,1,1,20,,,,,,,,,,,,,,,,,,,,,,,,,,,,,,,,,,,,,,,,,,,,,,,,None,,,None, shrill,"['s', 'h', 'r', 'i', 'l', 'l', 'return']","[0.7129062998574227, 0.993632199941203, 1.5769980000331998, 1.793082799995318, 2.4808212998323143, 2.640736599918455, 3.5372358998283744]",,,,,,,,,,,,,,,,,,,,,,,,,20,001,B,2023_Jan_31_1144,student_TT_local,2021.1.4,59.93561715822562,
,None,None,None,None,None,None,None,None,None,None,meddle,musket,6.5,7.5,video&audio/sentence2_TT_3X.mp4,video&audio/solemn_TT_3X.mp4,divert,solemn,None,,,,,,,,,,,,,,,,,,,,,,,,,,,0,2,2,25,,,,,,,,,,,,,,,,,,,,,,,,,,,,,,,,,,,,,,,,,,,,,,,,None,,,None, divert,"['d', 'i', 'v', 'e', 'r', 't', 'return']","[1.3151523999404162, 1.5712045999243855, 1.8274085999000818, 2.1566898999735713, 2.331052799941972, 2.7239753999747336, 3.467161600012332]",,,,,,,,,,,,,,,,,,,,,,,,,20,001,B,2023_Jan_31_1144,student_TT_local,2021.1.4,59.93561715822562,
,None,None,None,None,None,None,None,None,None,None,cobble,murmur,6.5,7.5,video&audio/sentence2_TT_3X.mp4,video&audio/picket_TT_3X.mp4,export,picket,None,,,,,,,,,,,,,,,,,,,,,,,,,,,0,3,3,19,,,,,,,,,,,,,,,,,,,,,,,,,,,,,,,,,,,,,,,,,,,,,,,,None,,,None, export,"['e', 'x', 'p', 'o', 'r', 't', 'return']","[0.9334766000974923, 1.4387499999720603, 1.8464272001292557, 2.133564000017941, 2.5255072000436485, 2.8376370000187308, 3.6777649000287056]",,,,,,,,,,,,,,,,,,,,,,,,,20,001,B,2023_Jan_31_1144,student_TT_local,2021.1.4,59.93561715822562,
,None,None,None,None,None,None,None,None,None,None,tandem,potent,6.5,7.5,video&audio/sentence4_TT_3X.mp4,video&audio/malady_TT_3X.mp4,origin,malady,None,,,,,,,,,,,,,,,,,,,,,,,,,,,0,4,4,15,,,,,,,,,,,,,,,,,,,,,,,,,,,,,,,,,,,,,,,,,,,,,,,,None,,,None, origin,"['o', 'r', 'i', 'g', 'i', 'n', 'return']","[0.9745738001074642, 1.5020214000251144, 1.765887400135398, 1.981843100162223, 2.197993200039491, 2.6232028000522405, 3.6073716999962926]",,,,,,,,,,,,,,,,,,,,,,,,,20,001,B,2023_Jan_31_1144,student_TT_local,2021.1.4,59.93561715822562,
,None,None,None,None,None,None,None,None,None,None,parish,upkeep,6.5,7.5,video&audio/sentence5_TT_3X.mp4,video&audio/tariff_TT_3X.mp4,gullet,tariff,None,,,,,,,,,,,,,,,,,,,,,,,,,,,0,5,5,28,,,,,,,,,,,,,,,,,,,,,,,,,,,,,,,,,,,,,,,,,,,,,,,,None,,,None, gullet,"['g', 'u', 'l', 'e', 'backspace', 'l', 'e', 't', 'return']","[1.0666004999075085, 1.322686200030148, 1.6914184000343084, 2.138768899952993, 3.122556099900976, 3.4832301000133157, 3.763582699932158, 4.059249999932945, 4.87601020000875]",,,,,,,,,,,,,,,,,,,,,,,,,20,001,B,2023_Jan_31_1144,student_TT_local,2021.1.4,59.93561715822562,
,None,None,None,None,None,None,None,None,None,None,innate,critic,19.5,20.5,video&audio/Sentence1_touch_edited.mp4,video&audio/hippie_touch_edited.mp4,tamper,hippie,None,,,,,,,,,,,,,,,,,,,,,,,,,,,0,6,6,12,,,,,,,,,,,,,,,,,,,,,,,,,,,,,,,,,,,,,,,,,,,,,,,,None,,,None, tamper,"['t', 'a', 'm', 'p', 'e', 'r', 'return']","[0.6659931000322104, 1.0109590000938624, 1.2665675000753254, 1.7057557001244277, 1.9626963001210243, 2.2106540000531822, 2.9777651999611408]",,,,,,,,,,,,,,,,,,,,,,,,,20,001,B,2023_Jan_31_1144,student_TT_local,2021.1.4,59.93561715822562,
,None,None,None,None,None,None,None,None,None,None,clergy,coerce,6.5,7.5,video&audio/sentence6_TT_3X.mp4,video&audio/obsess_TT_3X.mp4,portal,obsess,None,,,,,,,,,,,,,,,,,,,,,,,,,,,0,7,7,17,,,,,,,,,,,,,,,,,,,,,,,,,,,,,,,,,,,,,,,,,,,,,,,,None,,,None, portal,"['p', 'o', 'r', 't', 'a', 'l', 'return']","[0.7496702000498772, 1.0377500001341105, 1.2536903000436723, 1.5427696001715958, 1.7661205001641065, 1.9424569001421332, 2.7104177000001073]",,,,,,,,,,,,,,,,,,,,,,,,,20,001,B,2023_Jan_31_1144,student_TT_local,2021.1.4,59.93561715822562,
,None,None,None,None,None,None,None,None,None,None,jailer,deduct,6.5,7.5,video&audio/sentence5_TT_3X.mp4,video&audio/neural_TT_3X.mp4,nettle,neural,None,,,,,,,,,,,,,,,,,,,,,,,,,,,0,8,8,16,,,,,,,,,,,,,,,,,,,,,,,,,,,,,,,,,,,,,,,,,,,,,,,,None,,,None, nettle,"['n', 'e', 't', 't', 'l', 'e', 'return']","[1.4177647000178695, 1.729520499939099, 2.0730608999729156, 2.265572899952531, 2.51374419988133, 2.769093999871984, 3.6813735999166965]",,,,,,,,,,,,,,,,,,,,,,,,,20,001,B,2023_Jan_31_1144,student_TT_local,2021.1.4,59.93561715822562,
,None,None,None,None,None,None,None,None,None,None,befall,goblet,19.5,20.5,video&audio/Sentence3_touch_edited.mp4,video&audio/devise_touch_edited.mp4,ration,devise,None,,,,,,,,,,,,,,,,,,,,,,,,,,,0,9,9,8,,,,,,,,,,,,,,,,,,,,,,,,,,,,,,,,,,,,,,,,,,,,,,,,None,,,None, ration,"['r', 'a', 't', 'i', 'o', 'n', 'return']","[0.9248079000972211, 1.5568520999513566, 1.884533500066027, 2.16542199999094, 2.4610148000065237, 3.013275200035423, 3.7329885999206454]",,,,,,,,,,,,,,,,,,,,,,,,,20,001,B,2023_Jan_31_1144,student_TT_local,2021.1.4,59.93561715822562,
,None,None,None,None,None,None,None,None,None,None,primal,novice,19.5,20.5,video&audio/Sentence5_touch_edited.mp4,video&audio/confer_touch_edited.mp4,entail,confer,None,,,,,,,,,,,,,,,,,,,,,,,,,,,0,10,10,4,,,,,,,,,,,,,,,,,,,,,,,,,,,,,,,,,,,,,,,,,,,,,,,,None,,,None, entail,"['e', 'n', 't', 'a', 'i', 'l', 'return']","[1.1134381999727339, 1.3767101000994444, 1.5938218000810593, 1.81755240005441, 2.032631800044328, 2.5215576000045985, 3.256658900063485]",,,,,,,,,,,,,,,,,,,,,,,,,20,001,B,2023_Jan_31_1144,student_TT_local,2021.1.4,59.93561715822562,
,None,None,None,None,None,None,None,None,None,None,zephyr,sherry,19.5,20.5,video&audio/Sentence5_touch_edited.mp4,video&audio/forage_touch_edited.mp4,fusion,forage,None,,,,,,,,,,,,,,,,,,,,,,,,,,,0,11,11,10,,,,,,,,,,,,,,,,,,,,,,,,,,,,,,,,,,,,,,,,,,,,,,,,None,,,None, fusion,"['f', 'u', 's', 'i', 'o', 'n', 'return']","[1.171798299998045, 1.4757741000503302, 1.7237180001102388, 2.0045793999452144, 2.268404500093311, 2.948411399964243, 3.6997316000051796]",,,,,,,,,,,,,,,,,,,,,,,,,20,001,B,2023_Jan_31_1144,student_TT_local,2021.1.4,59.93561715822562,
,"Remember to type as QUICKLY and ACCURATELY as possible after the 'get ready' prompt.

Ask the experimenter any questions now. Please put on the headphones.

You will get one practice trial. Press 'enter/return' when you are ready to start the practice.","Remember to type as QUICKLY and ACCURATELY as you can after the 'get ready' prompt.

Ask the experimenter any questions now. Please put on the headphones.

You will get one practice trial. Press 'enter/return' when you are ready to start the practice.",video&audio/Example_AOMI_total.png,1.8,0.7,None,None,None,None,None,oppose,jargon,19.5,20.5,video&audio/Sentence3_touch_edited.mp4,video&audio/botany_touch_edited.mp4,ghetto,botany,None,,,,,,,,,,,,,,,,,,,,,,,,,,,0,12,12,2,,,,,,,,,,,,,,,,,,,,,,,,,,,,,,,,,,,,,,,,,,,,,,,,None,,,None, ghetto,"['g', 'h', 'e', 't', 't', 'o', 'return']","[0.7878650000784546, 1.1005406000185758, 1.4039853001013398, 1.6766719000879675, 1.8682132000103593, 2.1719070998951793, 3.0846597000490874]",,,,,,,,,,,,,,,,,,,,,,,,,20,001,B,2023_Jan_31_1144,student_TT_local,2021.1.4,59.93561715822562,
,None,None,None,None,None,None,None,None,None,None,mangle,satire,6.5,7.5,video&audio/sentence1_TT_3X.mp4,video&audio/ritual_TT_3X.mp4,warble,ritual,None,,,,,,,,,,,,,,,,,,,,,,,,,,,0,13,13,24,,,,,,,,,,,,,,,,,,,,,,,,,,,,,,,,,,,,,,,,,,,,,,,,None,,,None, warble,"['w', 'a', 'r', 'b', 'l', 'e', 'return']","[1.363617300055921, 1.6593663000967354, 1.8906644000671804, 2.170578300021589, 2.547452900093049, 3.3155453999061137, 3.9473808999173343]",,,,,,,,,,,,,,,,,,,,,,,,,20,001,B,2023_Jan_31_1144,student_TT_local,2021.1.4,59.93561715822562,
,None,None,None,None,None,None,None,None,None,None,induce,savant,6.5,7.5,video&audio/sentence4_TT_3X.mp4,video&audio/plasma_TT_3X.mp4,mussel,plasma,None,,,,,,,,,,,,,,,,,,,,,,,,,,,0,14,14,21,,,,,,,,,,,,,,,,,,,,,,,,,,,,,,,,,,,,,,,,,,,,,,,,None,,,None, mussel,"['m', 'u', 's', 's', 'e', 'l', 'return']","[1.0648771000560373, 1.4649388000834733, 1.720441099954769, 1.9845789999235421, 2.2403923000674695, 2.5523550999350846, 3.1844102998729795]",,,,,,,,,,,,,,,,,,,,,,,,,20,001,B,2023_Jan_31_1144,student_TT_local,2021.1.4,59.93561715822562,
,None,None,None,None,None,None,None,None,None,None,trench,fodder,6.5,7.5,video&audio/sentence4_TT_3X.mp4,video&audio/subtle_TT_3X.mp4,ethnic,subtle,None,,,,,,,,,,,,,,,,,,,,,,,,,,,0,15,15,27,,,,,,,,,,,,,,,,,,,,,,,,,,,,,,,,,,,,,,,,,,,,,,,,None,,,None, ethnic,"['e', 't', 'h', 'n', 'i', 'c', 'return']","[0.9192957000341266, 1.167311100056395, 1.3601250001229346, 1.6953675001859665, 1.976315800100565, 2.207777300151065, 3.4634069001767784]",,,,,,,,,,,,,,,,,,,,,,,,,20,001,B,2023_Jan_31_1144,student_TT_local,2021.1.4,59.93561715822562,
,None,None,None,None,None,None,None,None,None,None,septic,quarry,19.5,20.5,video&audio/Sentence2_touch_edited.mp4,video&audio/jackal_touch_edited.mp4,ordain,jackal,None,,,,,,,,,,,,,,,,,,,,,,,,,,,0,16,16,13,,,,,,,,,,,,,,,,,,,,,,,,,,,,,,,,,,,,,,,,,,,,,,,,None,,,None, ordain,"['o', 'r', 'd', 'a', 'i', 'n', 'return']","[0.8428079998120666, 1.0745043999049813, 1.4666338998358697, 1.6822890997864306, 1.922097499947995, 2.1947966997977346, 3.057969099842012]",,,,,,,,,,,,,,,,,,,,,,,,,20,001,B,2023_Jan_31_1144,student_TT_local,2021.1.4,59.93561715822562,
,None,None,None,None,None,None,None,None,None,None,feudal,impose,6.5,7.5,video&audio/sentence3_TT_3X.mp4,video&audio/subdue_TT_3X.mp4,matron,subdue,None,,,,,,,,,,,,,,,,,,,,,,,,,,,0,17,17,26,,,,,,,,,,,,,,,,,,,,,,,,,,,,,,,,,,,,,,,,,,,,,,,,None,,,None, matron,"['m', 'a', 't', 'r', 'o', 'n', 'return']","[0.9428974001202732, 1.2221107999794185, 1.470184399979189, 3.222172599984333, 3.5269435001537204, 3.7984430000651628, 4.518184900050983]",,,,,,,,,,,,,,,,,,,,,,,,,20,001,B,2023_Jan_31_1144,student_TT_local,2021.1.4,59.93561715822562,
,"While you watch the video, imagine yourself typing the word on the screen, like how you did in the imagery practice. While you watch the video and imagine this, rest your hands on your keyboard but DO NOT type until AFTER you see the typing prompt.

Press 'enter/return' to go to the next page.","While watching the video, imagine yourself typing the word on the screen, like how you did in the imagery practice. While you watch the video and imagine this, rest your hands on your keyboard but DO NOT type until AFTER you see the typing prompt.

Press 'enter/return' to go to the next page.",video&audio/Example_AOMI_imagine.png,1.6,1,butter,6.5,7.5,video&audio/amount_TT_3X.mp4,video&audio/butter_TT_3X.mp4,metric,plight,19.5,20.5,video&audio/Sentence2_touch_edited.mp4,video&audio/belfry_touch_edited.mp4,eatery,belfry,2 = AOMIspec,,,,,,,,,,,,,,,,,,,,,,,,,,,0,18,18,1,,,,,,,,,,,,,,,,,,,,,,,,,,,,,,,,,,,,,,,,,,,,,,,,None,,,None, eatery,"['e', 'a', 't', 'e', 'r', 'y', 'return']","[1.193893700139597, 1.4809070001356304, 1.7605711000505835, 2.0098502000328153, 2.2573406000155956, 2.5526355002075434, 3.409615300130099]",,,,,,,,,,,,,,,,,,,,,,,,,20,001,B,2023_Jan_31_1144,student_TT_local,2021.1.4,59.93561715822562,
,None,None,None,None,None,None,None,None,None,None,oblige,infirm,19.5,20.5,video&audio/Sentence4_touch_edited.mp4,video&audio/cervix_touch_edited.mp4,mystic,cervix,None,,,,,,,,,,,,,,,,,,,,,,,,,,,0,19,19,3,,,,,,,,,,,,,,,,,,,,,,,,,,,,,,,,,,,,,,,,,,,,,,,,None,,,None, mystic,"['n', 'backspace', 'm', 'y', 's', 't', 'i', 'c', 'return']","[0.8484571999870241, 1.7193540998268872, 2.1193703999742866, 2.4802305998746306, 2.6880385000258684, 2.9444857998751104, 3.144061599858105, 3.471401099814102, 4.5920561999082565]",,,,,,,,,,,,,,,,,,,,,,,,,20,001,B,2023_Jan_31_1144,student_TT_local,2021.1.4,59.93561715822562,
,None,None,None,None,None,None,None,None,None,None,girdle,manure,6.5,7.5,video&audio/sentence6_TT_3X.mp4,video&audio/pulpit_TT_3X.mp4,linear,pulpit,None,,,,,,,,,,,,,,,,,,,,,,,,,,,0,20,20,23,,,,,,,,,,,,,,,,,,,,,,,,,,,,,,,,,,,,,,,,,,,,,,,,None,,,None, linear,"['l', 'i', 'n', 'e', 'a', 'r', 'return']","[0.9544975999742746, 1.5474415000062436, 1.7790789999999106, 1.9864811999723315, 2.2584464999381453, 2.627824699971825, 3.4442143999040127]",,,,,,,,,,,,,,,,,,,,,,,,,20,001,B,2023_Jan_31_1144,student_TT_local,2021.1.4,59.93561715822562,
,None,None,None,None,None,None,None,None,None,None,patent,binder,19.5,20.5,video&audio/Sentence6_touch_edited.mp4,video&audio/frugal_touch_edited.mp4,defame,frugal,None,,,,,,,,,,,,,,,,,,,,,,,,,,,0,21,21,11,,,,,,,,,,,,,,,,,,,,,,,,,,,,,,,,,,,,,,,,,,,,,,,,None,,,None, defame,"['d', 'e', 'f', 'a', 'm', 'e', 'return']","[0.863168700132519, 1.055922199971974, 1.6557245999574661, 1.935388599988073, 2.183848600136116, 2.447916300036013, 3.0722670999821275]",,,,,,,,,,,,,,,,,,,,,,,,,20,001,B,2023_Jan_31_1144,student_TT_local,2021.1.4,59.93561715822562,
,None,None,None,None,None,None,None,None,None,None,delude,strife,19.5,20.5,video&audio/Sentence2_touch_edited.mp4,video&audio/debtor_touch_edited.mp4,galley,debtor,None,,,,,,,,,,,,,,,,,,,,,,,,,,,0,22,22,7,,,,,,,,,,,,,,,,,,,,,,,,,,,,,,,,,,,,,,,,,,,,,,,,None,,,None, galley,"['g', 'a', 'l', 'l', 'e', 'y', 'return']","[0.7804026000667363, 1.4529297999106348, 1.7403527998831123, 1.9323839000426233, 2.300371600082144, 2.8052648999728262, 3.676715800072998]",,,,,,,,,,,,,,,,,,,,,,,,,20,001,B,2023_Jan_31_1144,student_TT_local,2021.1.4,59.93561715822562,
,None,None,None,None,None,None,None,None,None,None,shrewd,mirage,19.5,20.5,video&audio/Sentence1_touch_edited.mp4,video&audio/covert_touch_edited.mp4,revoke,covert,None,,,,,,,,,,,,,,,,,,,,,,,,,,,0,23,23,6,,,,,,,,,,,,,,,,,,,,,,,,,,,,,,,,,,,,,,,,,,,,,,,,None,,,None, revoke,"['r', 'e', 'v', 'o', 'k', 'e', 'return']","[0.8565378999337554, 1.095929800067097, 1.583500999957323, 1.887630500132218, 2.735505999997258, 2.951484899967909, 3.503458899911493]",,,,,,,,,,,,,,,,,,,,,,,,,20,001,B,2023_Jan_31_1144,student_TT_local,2021.1.4,59.93561715822562,
,None,None,None,None,None,None,None,None,None,None,joiner,revolt,19.5,20.5,video&audio/Sentence6_touch_edited.mp4,video&audio/cortex_touch_edited.mp4,apathy,cortex,None,,,,,,,,,,,,,,,,,,,,,,,,,,,0,24,24,5,,,,,,,,,,,,,,,,,,,,,,,,,,,,,,,,,,,,,,,,,,,,,,,,None,,,None, apathy,"['a', 'p', 'a', 't', 'h', 'y', 'return']","[1.1750638999510556, 1.4701596999075264, 1.702153499936685, 2.310588499996811, 2.4942731999326497, 2.7660602999385446, 3.7108332000207156]",,,,,,,,,,,,,,,,,,,,,,,,,20,001,B,2023_Jan_31_1144,student_TT_local,2021.1.4,59.93561715822562,
,None,None,None,None,None,None,None,None,None,None,hearth,sonnet,19.5,20.5,video&audio/Sentence3_touch_edited.mp4,video&audio/kipper_touch_edited.mp4,herbal,kipper,None,,,,,,,,,,,,,,,,,,,,,,,,,,,0,25,25,14,,,,,,,,,,,,,,,,,,,,,,,,,,,,,,,,,,,,,,,,,,,,,,,,None,,,None, herbal,"['h', 'e', 'r', 'b', 'a', 'l', 'return']","[1.240355199901387, 1.5443229998927563, 1.7515040999278426, 1.9762304998002946, 2.1836975999176502, 2.4409806998446584, 2.9674146999605]",,,,,,,,,,,,,,,,,,,,,,,,,20,001,B,2023_Jan_31_1144,student_TT_local,2021.1.4,59.93561715822562,
,None,None,None,None,None,None,None,None,None,None,fungal,brazen,6.5,7.5,video&audio/sentence5_TT_3X.mp4,video&audio/matrix_TT_3X.mp4,mucous,matrix,None,,,,,,,,,,,,,,,,,,,,,,,,,,,0,26,26,22,,,,,,,,,,,,,,,,,,,,,,,,,,,,,,,,,,,,,,,,,,,,,,,,None,,,None, mucous,"['m', 'u', 'c', 'o', 'u', 's', 'return']","[0.844099200097844, 1.1635049001779407, 1.4761567001696676, 1.7078365001361817, 1.9237984002102166, 2.1560103001538664, 3.059962100116536]",,,,,,,,,,,,,,,,,,,,,,,,,20,001,B,2023_Jan_31_1144,student_TT_local,2021.1.4,59.93561715822562,
,None,None,None,None,None,None,None,None,None,None,campus,legion,6.5,7.5,video&audio/sentence6_TT_3X.mp4,video&audio/virile_TT_3X.mp4,allure,virile,None,,,,,,,,,,,,,,,,,,,,,,,,,,,0,27,27,29,,,,,,,,,,,,,,,,,,,,,,,,,,,,,,,,,,,,,,,,,,,,,,,,None,,,None, allure,"['a', 'l', 'l', 'u', 'r', 'e', 'return']","[0.8916396000422537, 1.659730700077489, 1.8998769000172615, 2.2762569999322295, 2.500625800108537, 2.715719599975273, 3.3958258000202477]",,,,,,,,,,,,,,,,,,,,,,,,,20,001,B,2023_Jan_31_1144,student_TT_local,2021.1.4,59.93561715822562,
,None,None,None,None,None,None,None,None,None,None,hamlet,parole,19.5,20.5,video&audio/Sentence4_touch_edited.mp4,video&audio/falter_touch_edited.mp4,shroud,falter,None,,,,,,,,,,,,,,,,,,,,,,,,,,,0,28,28,9,,,,,,,,,,,,,,,,,,,,,,,,,,,,,,,,,,,,,,,,,,,,,,,,None,,,None, shroud,"['s', 'h', 'r', 'o', 'u', 'd', 'return']","[0.8468498999718577, 1.1337973999325186, 1.3739290998782963, 1.654727199813351, 1.9498376999981701, 2.214014000026509, 2.950024399906397]",,,,,,,,,,,,,,,,,,,,,,,,,20,001,B,2023_Jan_31_1144,student_TT_local,2021.1.4,59.93561715822562,
,"This is Section 2.

In this section, your task will be the same as before - that is, to type the word you see on the screen AFTER the typing prompt. However, rather than just seeing the word before typing, you will also see a video of someone typing different words to what you will need to type at different speeds. 

Press 'enter/return' to go to the next page.","This is Section 4. 

In this section, your task will be the same as before - that is, to type the word you see on the screen after the typing prompt. You will see a video again, like in Section 2, only this time, the video will show someone the same word that you must type at different speeds. 

Press 'enter/return' to go to the next page.",video&audio/Example_AOMI_layout.png,1.6,0.6,afford,19.5,20.5,video&audio/amount_touch_edited.mp4,video&audio/afford_touch_edited.mp4,hinder,vanity,19.5,20.5,video&audio/Sentence1_touch_edited.mp4,video&audio/ascend_touch_edited.mp4,breach,ascend,1 = AOMIgen,,,,,,,,,,,,,,,,,,,,,,,,,,,0,29,29,0,,,,,,,,,,,,,,,,,,,,,,,,,,,,,,,,,,,,,,,,,,,,,,,,None,,,None, breach,"['b', 'r', 'e', 'a', 'c', 'h', 'return']","[0.9154791000764817, 1.1880248000379652, 1.443706399993971, 1.8597134000156075, 2.4435926999431103, 2.723909900058061, 3.7076987999025732]",,,,,,,,,,,,,,,,,,,,,,,,,20,001,B,2023_Jan_31_1144,student_TT_local,2021.1.4,59.93561715822562,
,,,,,,,,,,,,,,,,,,,,typingRatingScale.png,"How would you rate your typing performance in the previous section?

Press a number on your keyboard according to the rating scale below to give your answer. Your first answer will be accepted.",,,,,,,,,,,,,,,,,,,,,,,,,,,,,0,0,0,0,,,,,,,,,,,,,,,,,,,,,,,,,,,,,,,,,,,,,,,,,,,,,,,,,,,['5'],[6.421965699875727],,,,,,,,,,,,,,,,,,,,,,,20,001,B,2023_Jan_31_1144,student_TT_local,2021.1.4,59.93561715822562,
,,,,,,,,,,,,,,,,,,,,visualImageryScale.png,"While imagining yourself typing, how clear was your visual image?

Press a number on your keyboard according to the rating scale below to give your answer. Your first answer will be accepted.",,,,,,,,,,,,,,,,,,,,,,,,,,,,,0,1,1,1,,,,,,,,,,,,,,,,,,,,,,,,,,,,,,,,,,,,,,,,,,,,,,,,,,,['4'],[8.5852779999841],,,,,,,,,,,,,,,,,,,,,,,20,001,B,2023_Jan_31_1144,student_TT_local,2021.1.4,59.93561715822562,
,,,,,,,,,,,,,,,,,,,,kinestheticImageryScale.png,"While imagining yourself typing, how intense were the sensations associated with the imagined movement?

Press a number on your keyboard according to the rating scale below to give your answer. Your first answer will be accepted.",,,,,,,,,,,,,,,,,,,,,,,,,,,,,0,2,2,2,,,,,,,,,,,,,,,,,,,,,,,,,,,,,,,,,,,,,,,,,,,,,,,,,,,['5'],[10.070612599840388],,,,,,,,,,,,,,,,,,,,,,,20,001,B,2023_Jan_31_1144,student_TT_local,2021.1.4,59.93561715822562,
,None,None,None,None,None,None,None,None,None,None,hearth,sonnet,19.5,20.5,video&audio/Sentence3_touch_edited.mp4,video&audio/kipper_touch_edited.mp4,herbal,kipper,None,,,,,,,,,,,,,,,,,,,,,,,,,,,,,,,,,,,,,,,,,,,0,0,0,14,,,,,,,,,,,,,,,,,,,,,,,,,,,,,,,,,,,,,,,,,4573.306202500127,4579.817679099971,None, butter,"['b', 'u', 't', 't', 'e', 'r', 'return']","[1.0102791001554579, 1.2912649000063539, 1.5303281000815332, 1.7707883000839502, 2.0342244000639766, 2.2663270002231, 3.0587785001844168]",4611.803076400189,4631.315694400109,None, sonnet,"['s', 'o', 'n', 'n', 'e', 't', 'return']","[1.4016658999025822, 1.6493887999095023, 2.201598000014201, 2.3775059001054615, 2.5222263999748975, 3.0258535998873413, 3.9295387000311166]",,,,,,,,,,,20,001,B,2023_Jan_31_1144,student_TT_local,2021.1.4,59.93561715822562,
,None,None,None,None,None,None,None,None,None,None,hamlet,parole,19.5,20.5,video&audio/Sentence4_touch_edited.mp4,video&audio/falter_touch_edited.mp4,shroud,falter,None,,,,,,,,,,,,,,,,,,,,,,,,,,,,,,,,,,,,,,,,,,,0,1,1,9,,,,,,,,,,,,,,,,,,,,,,,,,,,,,,,,,,,,,,,,,,,,,,,4636.287577100098,4655.798019499984,None, parole,"['p', 'a', 'r', 'o', 'l', 'e', 'return']","[1.4490066000726074, 2.4976749001070857, 2.936990400077775, 3.4810729001183063, 3.752838599961251, 3.984841600060463, 5.0900153000839055]",,,,,,,,,,,20,001,B,2023_Jan_31_1144,student_TT_local,2021.1.4,59.93561715822562,
,None,None,None,None,None,None,None,None,None,None,delude,strife,19.5,20.5,video&audio/Sentence2_touch_edited.mp4,video&audio/debtor_touch_edited.mp4,galley,debtor,None,,,,,,,,,,,,,,,,,,,,,,,,,,,,,,,,,,,,,,,,,,,0,2,2,7,,,,,,,,,,,,,,,,,,,,,,,,,,,,,,,,,,,,,,,,,,,,,,,4661.927373700077,4681.431011900073,None, strife,"['s', 't', 'r', 'i', 'f', 'e', 'return']","[1.4134941999800503, 2.222057099919766, 2.454146899981424, 3.126000199932605, 3.365492400014773, 3.549442799994722, 4.278058199910447]",,,,,,,,,,,20,001,B,2023_Jan_31_1144,student_TT_local,2021.1.4,59.93561715822562,
,None,None,None,None,None,None,None,None,None,None,feudal,impose,6.5,7.5,video&audio/sentence3_TT_3X.mp4,video&audio/subdue_TT_3X.mp4,matron,subdue,None,,,,,,,,,,,,,,,,,,,,,,,,,,,,,,,,,,,,,,,,,,,0,3,3,26,,,,,,,,,,,,,,,,,,,,,,,,,,,,,,,,,,,,,,,,,,,,,,,4686.736670700135,4693.246817700099,None, impose,"['i', 'm', 'p', 'o', 's', 'e', 'return']","[1.1527127001900226, 1.4647170000243932, 1.857209000037983, 2.1129076001234353, 2.2804934000596404, 2.5845159001182765, 3.5374125000089407]",,,,,,,,,,,20,001,B,2023_Jan_31_1144,student_TT_local,2021.1.4,59.93561715822562,
,"Remember to type as QUICKLY and ACCURATELY as possible after the 'get ready' prompt.

Ask the experimenter any questions now. Please put on the headphones.

You will get one practice trial. Press 'enter/return' when you are ready to start the practice.","Remember to type as QUICKLY and ACCURATELY as you can after the 'get ready' prompt.

Ask the experimenter any questions now. Please put on the headphones.

You will get one practice trial. Press 'enter/return' when you are ready to start the practice.",video&audio/Example_AOMI_total.png,1.8,0.7,None,None,None,None,None,oppose,jargon,19.5,20.5,video&audio/Sentence3_touch_edited.mp4,video&audio/botany_touch_edited.mp4,ghetto,botany,None,,,,,,,,,,,,,,,,,,,,,,,,,,,,,,,,,,,,,,,,,,,0,4,4,2,,,,,,,,,,,,,,,,,,,,,,,,,,,,,,,,,,,,,,,,,,,,,,,4697.816139200004,4717.328573700041,None, jargon,"['j', 'a', 'r', 'g', 'o', 'n', 'return']","[1.149126400006935, 1.4064835000317544, 1.869112400105223, 2.1577518000267446, 2.69406839995645, 3.1415770000312477, 4.029554900014773]",,,,,,,,,,,20,001,B,2023_Jan_31_1144,student_TT_local,2021.1.4,59.93561715822562,
,None,None,None,None,None,None,None,None,None,None,induce,savant,6.5,7.5,video&audio/sentence4_TT_3X.mp4,video&audio/plasma_TT_3X.mp4,mussel,plasma,None,,,,,,,,,,,,,,,,,,,,,,,,,,,,,,,,,,,,,,,,,,,0,5,5,21,,,,,,,,,,,,,,,,,,,,,,,,,,,,,,,,,,,,,,,,,,,,,,,4722.384713400155,4728.893997800071,None, savant,"['s', 'a', 'v', 'a', 'n', 't', 'return']","[1.2942105999682099, 1.5340100000612438, 1.7581558001693338, 1.9182496999856085, 2.181891400134191, 2.381935400189832, 3.4621804000344127]",,,,,,,,,,,20,001,B,2023_Jan_31_1144,student_TT_local,2021.1.4,59.93561715822562,
,None,None,None,None,None,None,None,None,None,None,zephyr,sherry,19.5,20.5,video&audio/Sentence5_touch_edited.mp4,video&audio/forage_touch_edited.mp4,fusion,forage,None,,,,,,,,,,,,,,,,,,,,,,,,,,,,,,,,,,,,,,,,,,,0,6,6,10,,,,,,,,,,,,,,,,,,,,,,,,,,,,,,,,,,,,,,,,,,,,,,,4733.398014200153,4752.90897800005,None, sherry,"['s', 'h', 'e', 'r', 'r', 'y', 'return']","[1.0890193998347968, 1.4484838999342173, 2.32870680000633, 2.7844332000240684, 2.9607045999728143, 3.2486674999818206, 4.0250166999176145]",,,,,,,,,,,20,001,B,2023_Jan_31_1144,student_TT_local,2021.1.4,59.93561715822562,
,None,None,None,None,None,None,None,None,None,None,cobble,murmur,6.5,7.5,video&audio/sentence2_TT_3X.mp4,video&audio/picket_TT_3X.mp4,export,picket,None,,,,,,,,,,,,,,,,,,,,,,,,,,,,,,,,,,,,,,,,,,,0,7,7,19,,,,,,,,,,,,,,,,,,,,,,,,,,,,,,,,,,,,,,,,,,,,,,,4757.9720195999835,4764.4913914999925,None, murmur,"['m', 'u', 'r', 'm', 'u', 'r', 'return']","[1.0188647999893874, 1.5308347998652607, 1.8509710999205709, 2.579436899861321, 2.8916109998244792, 3.083226699847728, 3.8593240999616683]",,,,,,,,,,,20,001,B,2023_Jan_31_1144,student_TT_local,2021.1.4,59.93561715822562,
,None,None,None,None,None,None,None,None,None,None,caviar,pursue,6.5,7.5,video&audio/sentence3_TT_3X.mp4,video&audio/piston_TT_3X.mp4,shrill,piston,None,,,,,,,,,,,,,,,,,,,,,,,,,,,,,,,,,,,,,,,,,,,0,8,8,20,,,,,,,,,,,,,,,,,,,,,,,,,,,,,,,,,,,,,,,,,,,,,,,4769.362846300006,4775.877327600028,None, pursue,"['p', 'u', 'r', 's', 'u', 'e', 'return']","[1.1562329998705536, 1.4280303998384625, 1.6757724999915808, 2.0915148998610675, 2.2672643999103457, 2.531207799911499, 3.4914812999777496]",,,,,,,,,,,20,001,B,2023_Jan_31_1144,student_TT_local,2021.1.4,59.93561715822562,
,None,None,None,None,None,None,None,None,None,None,jailer,deduct,6.5,7.5,video&audio/sentence5_TT_3X.mp4,video&audio/neural_TT_3X.mp4,nettle,neural,None,,,,,,,,,,,,,,,,,,,,,,,,,,,,,,,,,,,,,,,,,,,0,9,9,16,,,,,,,,,,,,,,,,,,,,,,,,,,,,,,,,,,,,,,,,,,,,,,,4780.395902200136,4786.909201800125,None, deduct,"['d', 'e', 'd', 'u', 'c', 't', 'return']","[1.0547545000445098, 1.3035193998366594, 1.6465720999985933, 1.8947984999977052, 2.126654899911955, 2.3185739999171346, 3.190817799884826]",,,,,,,,,,,20,001,B,2023_Jan_31_1144,student_TT_local,2021.1.4,59.93561715822562,
,None,None,None,None,None,None,None,None,None,None,patent,binder,19.5,20.5,video&audio/Sentence6_touch_edited.mp4,video&audio/frugal_touch_edited.mp4,defame,frugal,None,,,,,,,,,,,,,,,,,,,,,,,,,,,,,,,,,,,,,,,,,,,0,10,10,11,,,,,,,,,,,,,,,,,,,,,,,,,,,,,,,,,,,,,,,,,,,,,,,4809.430034400197,4828.941739500035,None, binder,"['b', 'i', 'n', 'd', 'e', 'r', 'return']","[1.3715570999775082, 1.73957320000045, 2.0508372001349926, 2.3237119000405073, 2.5953655000776052, 2.8347201999276876, 3.7077349999453872]",,,,,,,,,,,20,001,B,2023_Jan_31_1144,student_TT_local,2021.1.4,59.93561715822562,
,None,None,None,None,None,None,None,None,None,None,clergy,coerce,6.5,7.5,video&audio/sentence6_TT_3X.mp4,video&audio/obsess_TT_3X.mp4,portal,obsess,None,,,,,,,,,,,,,,,,,,,,,,,,,,,,,,,,,,,,,,,,,,,0,11,11,17,,,,,,,,,,,,,,,,,,,,,,,,,,,,,,,,,,,,,,,,,,,,,,,4833.678939500125,4840.192433899967,None, coerce,"['o', 'backspace', 'c', 'o', 'e', 'r', 'c', 'e', 'return']","[1.2747436999343336, 2.1775533000472933, 2.545996000058949, 2.7942152998875827, 3.041440000059083, 3.217352099949494, 3.8263584000524133, 4.145925600081682, 4.658359699882567]",,,,,,,,,,,20,001,B,2023_Jan_31_1144,student_TT_local,2021.1.4,59.93561715822562,
,"This is Section 2.

In this section, your task will be the same as before - that is, to type the word you see on the screen AFTER the typing prompt. However, rather than just seeing the word before typing, you will also see a video of someone typing different words to what you will need to type at different speeds. 

Press 'enter/return' to go to the next page.","This is Section 4. 

In this section, your task will be the same as before - that is, to type the word you see on the screen after the typing prompt. You will see a video again, like in Section 2, only this time, the video will show someone the same word that you must type at different speeds. 

Press 'enter/return' to go to the next page.",video&audio/Example_AOMI_layout.png,1.6,0.6,afford,19.5,20.5,video&audio/amount_touch_edited.mp4,video&audio/afford_touch_edited.mp4,hinder,vanity,19.5,20.5,video&audio/Sentence1_touch_edited.mp4,video&audio/ascend_touch_edited.mp4,breach,ascend,1 = AOMIgen,,,,,,,,,,,,,,,,,,,,,,,,,,,,,,,,,,,,,,,,,,,0,12,12,0,,,,,,,,,,,,,,,,,,,,,,,,,,,,,,,,,,,,,,,,,,,,,,,4845.876814699965,4865.38934910018,None, vanity,"['v', 'a', 'n', 'i', 't', 'u', 'backspace', 'y', 'return']","[1.0803398001007736, 1.3283679999876767, 1.6164162999484688, 1.9764078001026064, 2.169232399901375, 2.41627119993791, 3.3122986999806017, 3.7211191998794675, 4.488896900089458]",,,,,,,,,,,20,001,B,2023_Jan_31_1144,student_TT_local,2021.1.4,59.93561715822562,
,None,None,None,None,None,None,None,None,None,None,primal,novice,19.5,20.5,video&audio/Sentence5_touch_edited.mp4,video&audio/confer_touch_edited.mp4,entail,confer,None,,,,,,,,,,,,,,,,,,,,,,,,,,,,,,,,,,,,,,,,,,,0,13,13,4,,,,,,,,,,,,,,,,,,,,,,,,,,,,,,,,,,,,,,,,,,,,,,,4870.909678900149,4890.422488200013,None, novice,"['n', 'o', 'v', 'i', 'c', 'e', 'return']","[0.8990273999515921, 1.3871943999547511, 1.8919025999493897, 2.0759699000045657, 2.3633076997939497, 2.7156680999323726, 3.283199899829924]",,,,,,,,,,,20,001,B,2023_Jan_31_1144,student_TT_local,2021.1.4,59.93561715822562,
,None,None,None,None,None,None,None,None,None,None,girdle,manure,6.5,7.5,video&audio/sentence6_TT_3X.mp4,video&audio/pulpit_TT_3X.mp4,linear,pulpit,None,,,,,,,,,,,,,,,,,,,,,,,,,,,,,,,,,,,,,,,,,,,0,14,14,23,,,,,,,,,,,,,,,,,,,,,,,,,,,,,,,,,,,,,,,,,,,,,,,4894.740054400172,4901.253098600078,None, manure,"['m', 'a', 'n', 'u', 'r', 'e', 'return']","[1.175249199848622, 1.3752885998692364, 1.6625218999106437, 2.0068622999824584, 2.1746828998439014, 2.350589699810371, 3.150444199796766]",,,,,,,,,,,20,001,B,2023_Jan_31_1144,student_TT_local,2021.1.4,59.93561715822562,
,None,None,None,None,None,None,None,None,None,None,campus,legion,6.5,7.5,video&audio/sentence6_TT_3X.mp4,video&audio/virile_TT_3X.mp4,allure,virile,None,,,,,,,,,,,,,,,,,,,,,,,,,,,,,,,,,,,,,,,,,,,0,15,15,29,,,,,,,,,,,,,,,,,,,,,,,,,,,,,,,,,,,,,,,,,,,,,,,4905.448347400175,4911.964512200095,None, legion,"['l', 'e', 'g', 'i', 'o', 'n', 'return']","[1.1146712999325246, 1.2987130000256002, 1.6198567999526858, 1.826508899917826, 2.0506657001096755, 2.2984682000242174, 3.1547542000189424]",,,,,,,,,,,20,001,B,2023_Jan_31_1144,student_TT_local,2021.1.4,59.93561715822562,
,None,None,None,None,None,None,None,None,None,None,meddle,musket,6.5,7.5,video&audio/sentence2_TT_3X.mp4,video&audio/solemn_TT_3X.mp4,divert,solemn,None,,,,,,,,,,,,,,,,,,,,,,,,,,,,,,,,,,,,,,,,,,,0,16,16,25,,,,,,,,,,,,,,,,,,,,,,,,,,,,,,,,,,,,,,,,,,,,,,,4916.141981000081,4922.652178200195,None, musket,"['m', 'u', 's', 'k', 'e', 't', 'return']","[0.9866106999106705, 1.2984571000561118, 1.4503446000162512, 1.7144764999393374, 1.882263100007549, 2.1072529999073595, 2.978919700020924]",,,,,,,,,,,20,001,B,2023_Jan_31_1144,student_TT_local,2021.1.4,59.93561715822562,
,None,None,None,None,None,None,None,None,None,None,shrewd,mirage,19.5,20.5,video&audio/Sentence1_touch_edited.mp4,video&audio/covert_touch_edited.mp4,revoke,covert,None,,,,,,,,,,,,,,,,,,,,,,,,,,,,,,,,,,,,,,,,,,,0,17,17,6,,,,,,,,,,,,,,,,,,,,,,,,,,,,,,,,,,,,,,,,,,,,,,,4926.657431200147,4946.1663650001865,None, mirage,"['m', 'i', 'r', 'g', 'backspace', 'a', 'g', 'e', 'return']","[0.8725833999924362, 1.1453096000477672, 1.28109210007824, 1.7290744001511484, 2.5614768001250923, 2.848774100188166, 3.1132815000601113, 3.3288756001275033, 3.96862250007689]",,,,,,,,,,,20,001,B,2023_Jan_31_1144,student_TT_local,2021.1.4,59.93561715822562,
,None,None,None,None,None,None,None,None,None,None,joiner,revolt,19.5,20.5,video&audio/Sentence6_touch_edited.mp4,video&audio/cortex_touch_edited.mp4,apathy,cortex,None,,,,,,,,,,,,,,,,,,,,,,,,,,,,,,,,,,,,,,,,,,,0,18,18,5,,,,,,,,,,,,,,,,,,,,,,,,,,,,,,,,,,,,,,,,,,,,,,,4951.196789200185,4970.702291400172,None, revolt,"['r', 'e', 'v', 'o', 'l', 't', 'return']","[0.7832511998713017, 0.9758550999686122, 1.9430875999387354, 2.1516813999041915, 2.4470334998331964, 2.879145599901676, 3.40763369994238]",,,,,,,,,,,20,001,B,2023_Jan_31_1144,student_TT_local,2021.1.4,59.93561715822562,
,None,None,None,None,None,None,None,None,None,None,parish,upkeep,6.5,7.5,video&audio/sentence5_TT_3X.mp4,video&audio/tariff_TT_3X.mp4,gullet,tariff,None,,,,,,,,,,,,,,,,,,,,,,,,,,,,,,,,,,,,,,,,,,,0,19,19,28,,,,,,,,,,,,,,,,,,,,,,,,,,,,,,,,,,,,,,,,,,,,,,,4975.13672160008,4981.649695900036,None, upkeep,"['u', 'p', 'k', 'e', 'e', 'p', 'return']","[1.0438509001396596, 1.4672132001724094, 1.82750240014866, 2.1311994001735, 2.3556523001752794, 3.8990877000615, 4.3634425001218915]",,,,,,,,,,,20,001,B,2023_Jan_31_1144,student_TT_local,2021.1.4,59.93561715822562,
,None,None,None,None,None,None,None,None,None,None,trench,fodder,6.5,7.5,video&audio/sentence4_TT_3X.mp4,video&audio/subtle_TT_3X.mp4,ethnic,subtle,None,,,,,,,,,,,,,,,,,,,,,,,,,,,,,,,,,,,,,,,,,,,0,20,20,27,,,,,,,,,,,,,,,,,,,,,,,,,,,,,,,,,,,,,,,,,,,,,,,4999.252168799983,5005.764719699975,None, fodder,"['f', 'o', 'd', 'd', 'e', 'r', 'return']","[18.432754599954933, 18.641534799942747, 18.841431400040165, 19.032918400131166, 19.225297700148076, 19.425533200148493, 19.91278910008259]",,,,,,,,,,,20,001,B,2023_Jan_31_1144,student_TT_local,2021.1.4,59.93561715822562,
,None,None,None,None,None,None,None,None,None,None,befall,goblet,19.5,20.5,video&audio/Sentence3_touch_edited.mp4,video&audio/devise_touch_edited.mp4,ration,devise,None,,,,,,,,,,,,,,,,,,,,,,,,,,,,,,,,,,,,,,,,,,,0,21,21,8,,,,,,,,,,,,,,,,,,,,,,,,,,,,,,,,,,,,,,,,,,,,,,,5026.726171600167,5046.229862000095,None, goblet,"['g', 'o', 'b', 'l', 'e', 't', 'return']","[1.34367539989762, 1.5278763000387698, 2.088179500075057, 2.303489699959755, 2.503955400083214, 2.727661899989471, 3.7764413999393582]",,,,,,,,,,,20,001,B,2023_Jan_31_1144,student_TT_local,2021.1.4,59.93561715822562,
,None,None,None,None,None,None,None,None,None,None,fungal,brazen,6.5,7.5,video&audio/sentence5_TT_3X.mp4,video&audio/matrix_TT_3X.mp4,mucous,matrix,None,,,,,,,,,,,,,,,,,,,,,,,,,,,,,,,,,,,,,,,,,,,0,22,22,22,,,,,,,,,,,,,,,,,,,,,,,,,,,,,,,,,,,,,,,,,,,,,,,5051.034235200146,5057.546030099969,None, brazen,"['b', 'r', 'a', 'z', 'e', 'n', 'return']","[0.9978132999967784, 1.1884157999884337, 1.5578427999280393, 1.9404519000090659, 2.364479999989271, 2.5644729000050575, 3.4846306999679655]",,,,,,,,,,,20,001,B,2023_Jan_31_1144,student_TT_local,2021.1.4,59.93561715822562,
,None,None,None,None,None,None,None,None,None,None,output,convoy,6.5,7.5,video&audio/sentence1_TT_3X.mp4,video&audio/parcel_TT_3X.mp4,uphold,parcel,None,,,,,,,,,,,,,,,,,,,,,,,,,,,,,,,,,,,,,,,,,,,0,23,23,18,,,,,,,,,,,,,,,,,,,,,,,,,,,,,,,,,,,,,,,,,,,,,,,5062.070970900124,5068.578872099984,None, convoy,"['c', 'o', 'n', 'v', 'o', 'y', 'return']","[1.141214800067246, 1.412531099980697, 1.6766187001485378, 1.8761972000356764, 2.0765498001128435, 2.588603900047019, 3.5799706000834703]",,,,,,,,,,,20,001,B,2023_Jan_31_1144,student_TT_local,2021.1.4,59.93561715822562,
,None,None,None,None,None,None,None,None,None,None,innate,critic,19.5,20.5,video&audio/Sentence1_touch_edited.mp4,video&audio/hippie_touch_edited.mp4,tamper,hippie,None,,,,,,,,,,,,,,,,,,,,,,,,,,,,,,,,,,,,,,,,,,,0,24,24,12,,,,,,,,,,,,,,,,,,,,,,,,,,,,,,,,,,,,,,,,,,,,,,,5073.199458200019,5092.712147900136,None, critic,"['c', 'r', 'i', 't', 'i', 'c', 'return']","[1.142091799993068, 1.5021363000851125, 1.733554100152105, 1.8938768000807613, 2.0458963001146913, 2.29355760011822, 3.0937916000839323]",,,,,,,,,,,20,001,B,2023_Jan_31_1144,student_TT_local,2021.1.4,59.93561715822562,
,None,None,None,None,None,None,None,None,None,None,oblige,infirm,19.5,20.5,video&audio/Sentence4_touch_edited.mp4,video&audio/cervix_touch_edited.mp4,mystic,cervix,None,,,,,,,,,,,,,,,,,,,,,,,,,,,,,,,,,,,,,,,,,,,0,25,25,3,,,,,,,,,,,,,,,,,,,,,,,,,,,,,,,,,,,,,,,,,,,,,,,5096.850458600093,5116.358966400148,None, infirm,"['i', 'n', 'f', 'i', 'r', 'm', 'return']","[0.8835221000481397, 1.1559964001644403, 1.428283500019461, 1.6520209000445902, 1.8606381001882255, 2.067524300189689, 3.1476056000683457]",,,,,,,,,,,20,001,B,2023_Jan_31_1144,student_TT_local,2021.1.4,59.93561715822562,
,None,None,None,None,None,None,None,None,None,None,tandem,potent,6.5,7.5,video&audio/sentence4_TT_3X.mp4,video&audio/malady_TT_3X.mp4,origin,malady,None,,,,,,,,,,,,,,,,,,,,,,,,,,,,,,,,,,,,,,,,,,,0,26,26,15,,,,,,,,,,,,,,,,,,,,,,,,,,,,,,,,,,,,,,,,,,,,,,,5120.547330100089,5127.058318700176,None, potent,"['p', 'o', 't', 'e', 'n', 't', 'return']","[1.1045697000809014, 1.359982400201261, 1.5761704000178725, 1.783655600156635, 1.9440207001753151, 2.120712200179696, 2.8636263001244515]",,,,,,,,,,,20,001,B,2023_Jan_31_1144,student_TT_local,2021.1.4,59.93561715822562,
,"While you watch the video, imagine yourself typing the word on the screen, like how you did in the imagery practice. While you watch the video and imagine this, rest your hands on your keyboard but DO NOT type until AFTER you see the typing prompt.

Press 'enter/return' to go to the next page.","While watching the video, imagine yourself typing the word on the screen, like how you did in the imagery practice. While you watch the video and imagine this, rest your hands on your keyboard but DO NOT type until AFTER you see the typing prompt.

Press 'enter/return' to go to the next page.",video&audio/Example_AOMI_imagine.png,1.6,1,butter,6.5,7.5,video&audio/amount_TT_3X.mp4,video&audio/butter_TT_3X.mp4,metric,plight,19.5,20.5,video&audio/Sentence2_touch_edited.mp4,video&audio/belfry_touch_edited.mp4,eatery,belfry,2 = AOMIspec,,,,,,,,,,,,,,,,,,,,,,,,,,,,,,,,,,,,,,,,,,,0,27,27,1,,,,,,,,,,,,,,,,,,,,,,,,,,,,,,,,,,,,,,,,,,,,,,,5130.96526330011,5150.481658000033,None, plight,"['p', 'l', 'i', 'g', 'h', 't', 'return']","[1.0349801999982446, 1.3633934000972658, 1.8269152001012117, 2.098965600132942, 2.2668932999949902, 2.428074600175023, 3.540421799989417]",,,,,,,,,,,20,001,B,2023_Jan_31_1144,student_TT_local,2021.1.4,59.93561715822562,
,None,None,None,None,None,None,None,None,None,None,septic,quarry,19.5,20.5,video&audio/Sentence2_touch_edited.mp4,video&audio/jackal_touch_edited.mp4,ordain,jackal,None,,,,,,,,,,,,,,,,,,,,,,,,,,,,,,,,,,,,,,,,,,,0,28,28,13,,,,,,,,,,,,,,,,,,,,,,,,,,,,,,,,,,,,,,,,,,,,,,,5155.047290000133,5174.555715900147,None, quarry,"['q', 'u', 'a', 'r', 'r', 'y', 'return']","[1.0148765000049025, 1.2469063000753522, 1.7916125999763608, 2.4879928999580443, 2.736458000028506, 2.9913095999509096, 3.74347859993577]",,,,,,,,,,,20,001,B,2023_Jan_31_1144,student_TT_local,2021.1.4,59.93561715822562,
,None,None,None,None,None,None,None,None,None,None,mangle,satire,6.5,7.5,video&audio/sentence1_TT_3X.mp4,video&audio/ritual_TT_3X.mp4,warble,ritual,None,,,,,,,,,,,,,,,,,,,,,,,,,,,,,,,,,,,,,,,,,,,0,29,29,24,,,,,,,,,,,,,,,,,,,,,,,,,,,,,,,,,,,,,,,,,,,,,,,5179.329162700102,5185.839744300116,None, satire,"['s', 'a', 't', 'i', 'r', 'e', 'return']","[0.917955500073731, 1.2226140999700874, 1.5581096999812871, 1.781730500049889, 2.1337407999671996, 2.422747800126672, 3.133710900088772]",,,,,,,,,,,20,001,B,2023_Jan_31_1144,student_TT_local,2021.1.4,59.93561715822562,
,,,,,,,,,,,,,,,,,,,,typingRatingScale.png,"How would you rate your typing performance in the previous section?

Press a number on your keyboard according to the rating scale below to give your answer. Your first answer will be accepted.",,,,,,,,,,,,,,,,,,,,,,,,,,,,,,,,,,,,,,,,,,,,,0,0,0,0,,,,,,,,,,,,,,,,,,,,,,,,,,,,,,,,,,,,,,,,,,,,,,,,,['4'],[3.394790899939835],,,,,,,,,20,001,B,2023_Jan_31_1144,student_TT_local,2021.1.4,59.93561715822562,
,,,,,,,,,,,,,,,,,,,,imageryCheckScale.png,"In the previous section did you imagine yourself typing?

Press a number on your keyboard according to the rating scale below to give your answer. Your first answer will be accepted.",,,,,,,,,,,,,,,,,,,,,,,,,,,,,,,,,,,,,,,,,,,,,0,1,1,1,,,,,,,,,,,,,,,,,,,,,,,,,,,,,,,,,,,,,,,,,,,,,,,,,['1'],[9.609286099905148],,,,,,,,,20,001,B,2023_Jan_31_1144,student_TT_local,2021.1.4,59.93561715822562,
,None,None,None,None,None,None,None,None,None,None,campus,legion,6.5,7.5,video&audio/sentence6_TT_3X.mp4,video&audio/virile_TT_3X.mp4,allure,virile,None,,,,,,,,,,,,,,,,,,,,,,,,,,,,,,,,,,,,,,,,,,,,,,,,,,,,,,,,,,,0,0,0,29,,,,,,,,,,,,,,,,None,"['b', 'u', 't', 't', 'e', 'r', 'return']","[1.0120572000741959, 1.3402619999833405, 1.692322500050068, 1.892148300074041, 2.180045000044629, 2.405076100025326, 2.8761549999471754]",,,,,,,,,,,,,,,,,,,,,None,[0.25157140009105206],None, virile,"['v', 'i', 'r', 'i', 'l', 'e']","[1.1594612998887897, 1.3915955999400467, 1.5756000999826938, 1.8075790000148118, 2.495801799930632, 2.8791624000295997]",,,20,001,B,2023_Jan_31_1144,student_TT_local,2021.1.4,59.93561715822562,
,None,None,None,None,None,None,None,None,None,None,delude,strife,19.5,20.5,video&audio/Sentence2_touch_edited.mp4,video&audio/debtor_touch_edited.mp4,galley,debtor,None,,,,,,,,,,,,,,,,,,,,,,,,,,,,,,,,,,,,,,,,,,,,,,,,,,,,,,,,,,,0,1,1,7,,,,,,,,,,,,,,,,None,,,,,,,,,,,,,,,,,,,,,,,,,None, debtor,"['d', 'e', 'b', 't', 'o', 'r', 'return']","[0.7935963000636548, 1.0488682000432163, 1.3048962999600917, 1.545323400059715, 1.8168933000415564, 2.057657000143081, 2.881150000030175]",,,20,001,B,2023_Jan_31_1144,student_TT_local,2021.1.4,59.93561715822562,
,None,None,None,None,None,None,None,None,None,None,innate,critic,19.5,20.5,video&audio/Sentence1_touch_edited.mp4,video&audio/hippie_touch_edited.mp4,tamper,hippie,None,,,,,,,,,,,,,,,,,,,,,,,,,,,,,,,,,,,,,,,,,,,,,,,,,,,,,,,,,,,0,2,2,12,,,,,,,,,,,,,,,,None,,,,,,,,,,,,,,,,,,,,,,,,,None, hippie,"['h', 'i', 'p', 'p', 'i', 'e', 'return']","[0.7916176000144333, 1.0542172000277787, 1.4382786001078784, 1.6302839000709355, 1.9271575000602752, 2.1917916000820696, 2.942892200080678]",,,20,001,B,2023_Jan_31_1144,student_TT_local,2021.1.4,59.93561715822562,
,None,None,None,None,None,None,None,None,None,None,jailer,deduct,6.5,7.5,video&audio/sentence5_TT_3X.mp4,video&audio/neural_TT_3X.mp4,nettle,neural,None,,,,,,,,,,,,,,,,,,,,,,,,,,,,,,,,,,,,,,,,,,,,,,,,,,,,,,,,,,,0,3,3,16,,,,,,,,,,,,,,,,None,,,,,,,,,,,,,,,,,,,,,,,,,None, neural,"['n', 'e', 'u', 'r', 'a', 'l', 'return']","[0.780092200031504, 1.0764605000149459, 1.3086048001423478, 1.5318665001541376, 1.8683124999515712, 2.1248979000374675, 2.7804107000119984]",,,20,001,B,2023_Jan_31_1144,student_TT_local,2021.1.4,59.93561715822562,
,None,None,None,None,None,None,None,None,None,None,befall,goblet,19.5,20.5,video&audio/Sentence3_touch_edited.mp4,video&audio/devise_touch_edited.mp4,ration,devise,None,,,,,,,,,,,,,,,,,,,,,,,,,,,,,,,,,,,,,,,,,,,,,,,,,,,,,,,,,,,0,4,4,8,,,,,,,,,,,,,,,,None,,,,,,,,,,,,,,,,,,,,,,,,,None, devise,"['d', 'e', 'v', 'i', 's', 'e', 'return']","[0.880246400134638, 1.0903453000355512, 1.5523022999987006, 2.0164238000288606, 2.416177700040862, 2.696320699993521, 3.4245808999985456]",,,20,001,B,2023_Jan_31_1144,student_TT_local,2021.1.4,59.93561715822562,
,None,None,None,None,None,None,None,None,None,None,trench,fodder,6.5,7.5,video&audio/sentence4_TT_3X.mp4,video&audio/subtle_TT_3X.mp4,ethnic,subtle,None,,,,,,,,,,,,,,,,,,,,,,,,,,,,,,,,,,,,,,,,,,,,,,,,,,,,,,,,,,,0,5,5,27,,,,,,,,,,,,,,,,None,,,,,,,,,,,,,,,,,,,,,,,,,None, subtle,"['s', 'u', 'b', 't', 'l', 'e', 'return']","[1.0298468999098986, 1.34239810006693, 1.645778600126505, 1.950013699941337, 2.5657150000333786, 2.75930120004341, 3.4143908000551164]",,,20,001,B,2023_Jan_31_1144,student_TT_local,2021.1.4,59.93561715822562,
,None,None,None,None,None,None,None,None,None,None,parish,upkeep,6.5,7.5,video&audio/sentence5_TT_3X.mp4,video&audio/tariff_TT_3X.mp4,gullet,tariff,None,,,,,,,,,,,,,,,,,,,,,,,,,,,,,,,,,,,,,,,,,,,,,,,,,,,,,,,,,,,0,6,6,28,,,,,,,,,,,,,,,,None,,,,,,,,,,,,,,,,,,,,,,,,,None, tariff,"['t', 'a', 'r', 'i', 'f', 'f', 'return']","[0.6211851998232305, 1.133204999845475, 1.3737400998361409, 1.5892109000124037, 1.8298549000173807, 2.0461972998455167, 2.9893320999108255]",,,20,001,B,2023_Jan_31_1144,student_TT_local,2021.1.4,59.93561715822562,
,"Remember to type as QUICKLY and ACCURATELY as possible after the 'get ready' prompt.

Ask the experimenter any questions now. Please put on the headphones.

You will get one practice trial. Press 'enter/return' when you are ready to start the practice.","Remember to type as QUICKLY and ACCURATELY as you can after the 'get ready' prompt.

Ask the experimenter any questions now. Please put on the headphones.

You will get one practice trial. Press 'enter/return' when you are ready to start the practice.",video&audio/Example_AOMI_total.png,1.8,0.7,None,None,None,None,None,oppose,jargon,19.5,20.5,video&audio/Sentence3_touch_edited.mp4,video&audio/botany_touch_edited.mp4,ghetto,botany,None,,,,,,,,,,,,,,,,,,,,,,,,,,,,,,,,,,,,,,,,,,,,,,,,,,,,,,,,,,,0,7,7,2,,,,,,,,,,,,,,,,None,,,,,,,,,,,,,,,,,,,,,,,,,None, botany,"['b', 'o', 't', 'a', 'n', 'y', 'return']","[0.7236746998969465, 1.1954200000036508, 1.603613599902019, 1.9956920000258833, 2.1634741998277605, 2.539357400033623, 3.7727093999274075]",,,20,001,B,2023_Jan_31_1144,student_TT_local,2021.1.4,59.93561715822562,
,None,None,None,None,None,None,None,None,None,None,girdle,manure,6.5,7.5,video&audio/sentence6_TT_3X.mp4,video&audio/pulpit_TT_3X.mp4,linear,pulpit,None,,,,,,,,,,,,,,,,,,,,,,,,,,,,,,,,,,,,,,,,,,,,,,,,,,,,,,,,,,,0,8,8,23,,,,,,,,,,,,,,,,None,,,,,,,,,,,,,,,,,,,,,,,,,None, pulpit,"['p', 'u', 'l', 'p', 'i', 't', 'return']","[0.9127534001599997, 1.2093181000091136, 1.5536889000795782, 1.9130089001264423, 2.5370916000101715, 2.7129844001028687, 3.5610762001015246]",,,20,001,B,2023_Jan_31_1144,student_TT_local,2021.1.4,59.93561715822562,
,None,None,None,None,None,None,None,None,None,None,caviar,pursue,6.5,7.5,video&audio/sentence3_TT_3X.mp4,video&audio/piston_TT_3X.mp4,shrill,piston,None,,,,,,,,,,,,,,,,,,,,,,,,,,,,,,,,,,,,,,,,,,,,,,,,,,,,,,,,,,,0,9,9,20,,,,,,,,,,,,,,,,None,,,,,,,,,,,,,,,,,,,,,,,,,None, piston,"['p', 'i', 's', 't', 'o', 'n', 'return']","[1.2315329001285136, 1.5278415000066161, 1.7436823002062738, 2.0074739002157003, 2.1678049000911415, 2.431614400120452, 3.232156000100076]",,,20,001,B,2023_Jan_31_1144,student_TT_local,2021.1.4,59.93561715822562,
,None,None,None,None,None,None,None,None,None,None,zephyr,sherry,19.5,20.5,video&audio/Sentence5_touch_edited.mp4,video&audio/forage_touch_edited.mp4,fusion,forage,None,,,,,,,,,,,,,,,,,,,,,,,,,,,,,,,,,,,,,,,,,,,,,,,,,,,,,,,,,,,0,10,10,10,,,,,,,,,,,,,,,,None,,,,,,,,,,,,,,,,,,,,,,,,,None, forage,"['f', 'o', 'r', 'a', 'g', 'e', 'return']","[1.1084504998289049, 1.372308999998495, 1.628061099909246, 1.9003874999471009, 2.6845195998903364, 2.9088818999007344, 3.9243242000229657]",,,20,001,B,2023_Jan_31_1144,student_TT_local,2021.1.4,59.93561715822562,
,None,None,None,None,None,None,None,None,None,None,joiner,revolt,19.5,20.5,video&audio/Sentence6_touch_edited.mp4,video&audio/cortex_touch_edited.mp4,apathy,cortex,None,,,,,,,,,,,,,,,,,,,,,,,,,,,,,,,,,,,,,,,,,,,,,,,,,,,,,,,,,,,0,11,11,5,,,,,,,,,,,,,,,,None,,,,,,,,,,,,,,,,,,,,,,,,,None, cortex,"['c', 'o', 'r', 't', 'e', 'x', 'return']","[1.1209601000882685, 1.409215500112623, 1.7046936999540776, 1.9461501000914723, 2.6174371000379324, 3.38477970007807, 3.752949600107968]",,,20,001,B,2023_Jan_31_1144,student_TT_local,2021.1.4,59.93561715822562,
,None,None,None,None,None,None,None,None,None,None,patent,binder,19.5,20.5,video&audio/Sentence6_touch_edited.mp4,video&audio/frugal_touch_edited.mp4,defame,frugal,None,,,,,,,,,,,,,,,,,,,,,,,,,,,,,,,,,,,,,,,,,,,,,,,,,,,,,,,,,,,0,12,12,11,,,,,,,,,,,,,,,,None,,,,,,,,,,,,,,,,,,,,,,,,,None, frugal,"['f', 'r', 'u', 'g', 'a', 'l', 'return']","[0.9271313999779522, 1.2316757999360561, 1.5354735997971147, 1.7671724997926503, 2.1518509997986257, 2.695177499903366, 3.383231099927798]",,,20,001,B,2023_Jan_31_1144,student_TT_local,2021.1.4,59.93561715822562,
,None,None,None,None,None,None,None,None,None,None,clergy,coerce,6.5,7.5,video&audio/sentence6_TT_3X.mp4,video&audio/obsess_TT_3X.mp4,portal,obsess,None,,,,,,,,,,,,,,,,,,,,,,,,,,,,,,,,,,,,,,,,,,,,,,,,,,,,,,,,,,,0,13,13,17,,,,,,,,,,,,,,,,None,,,,,,,,,,,,,,,,,,,,,,,,,None, obsess,"['o', 'b', 's', 'e', 's', 's', 'return']","[1.7844104000832886, 2.040526600088924, 2.2567046000622213, 2.5449431999586523, 2.8727303999476135, 3.06436700001359, 3.6803244999609888]",,,20,001,B,2023_Jan_31_1144,student_TT_local,2021.1.4,59.93561715822562,
,"While you watch the video, imagine yourself typing the word on the screen, like how you did in the imagery practice. While you watch the video and imagine this, rest your hands on your keyboard but DO NOT type until AFTER you see the typing prompt.

Press 'enter/return' to go to the next page.","While watching the video, imagine yourself typing the word on the screen, like how you did in the imagery practice. While you watch the video and imagine this, rest your hands on your keyboard but DO NOT type until AFTER you see the typing prompt.

Press 'enter/return' to go to the next page.",video&audio/Example_AOMI_imagine.png,1.6,1,butter,6.5,7.5,video&audio/amount_TT_3X.mp4,video&audio/butter_TT_3X.mp4,metric,plight,19.5,20.5,video&audio/Sentence2_touch_edited.mp4,video&audio/belfry_touch_edited.mp4,eatery,belfry,2 = AOMIspec,,,,,,,,,,,,,,,,,,,,,,,,,,,,,,,,,,,,,,,,,,,,,,,,,,,,,,,,,,,0,14,14,1,,,,,,,,,,,,,,,,None,,,,,,,,,,,,,,,,,,,,,,,,,None, belfry,"['b', 'e', 'l', 'f', 'r', 'y', 'return']","[0.9804036999121308, 1.2992155000101775, 1.8991903997957706, 2.147587299812585, 2.3321914998814464, 2.58723309985362, 3.6992332998197526]",,,20,001,B,2023_Jan_31_1144,student_TT_local,2021.1.4,59.93561715822562,
,None,None,None,None,None,None,None,None,None,None,cobble,murmur,6.5,7.5,video&audio/sentence2_TT_3X.mp4,video&audio/picket_TT_3X.mp4,export,picket,None,,,,,,,,,,,,,,,,,,,,,,,,,,,,,,,,,,,,,,,,,,,,,,,,,,,,,,,,,,,0,15,15,19,,,,,,,,,,,,,,,,None,,,,,,,,,,,,,,,,,,,,,,,,,None, picket,"['p', 'i', 'c', 'k', 'e', 't', 'return']","[1.3844059000257403, 1.6408502999693155, 1.904257900081575, 2.296935500111431, 2.4966714000329375, 2.704219799954444, 3.168252300005406]",,,20,001,B,2023_Jan_31_1144,student_TT_local,2021.1.4,59.93561715822562,
,None,None,None,None,None,None,None,None,None,None,induce,savant,6.5,7.5,video&audio/sentence4_TT_3X.mp4,video&audio/plasma_TT_3X.mp4,mussel,plasma,None,,,,,,,,,,,,,,,,,,,,,,,,,,,,,,,,,,,,,,,,,,,,,,,,,,,,,,,,,,,0,16,16,21,,,,,,,,,,,,,,,,None,,,,,,,,,,,,,,,,,,,,,,,,,None, plasma,"['p', 'l', 'a', 's', 'm', 'a', 'return']","[1.2553973000030965, 1.5661699001211673, 2.046290700091049, 2.8303395002149045, 3.071199300000444, 3.190980000188574, 3.702505800174549]",,,20,001,B,2023_Jan_31_1144,student_TT_local,2021.1.4,59.93561715822562,
,None,None,None,None,None,None,None,None,None,None,septic,quarry,19.5,20.5,video&audio/Sentence2_touch_edited.mp4,video&audio/jackal_touch_edited.mp4,ordain,jackal,None,,,,,,,,,,,,,,,,,,,,,,,,,,,,,,,,,,,,,,,,,,,,,,,,,,,,,,,,,,,0,17,17,13,,,,,,,,,,,,,,,,None,,,,,,,,,,,,,,,,,,,,,,,,,None, jackal,"['j', 'a', 'c', 'k', 'l', 'backspace', 'a', 'l', 'return']","[0.5718356999568641, 0.7875441999640316, 1.3552256000693887, 1.6509579999838024, 2.4272239999845624, 3.227293499978259, 3.379266600124538, 3.707741199992597, 4.235001499997452]",,,20,001,B,2023_Jan_31_1144,student_TT_local,2021.1.4,59.93561715822562,
,None,None,None,None,None,None,None,None,None,None,hearth,sonnet,19.5,20.5,video&audio/Sentence3_touch_edited.mp4,video&audio/kipper_touch_edited.mp4,herbal,kipper,None,,,,,,,,,,,,,,,,,,,,,,,,,,,,,,,,,,,,,,,,,,,,,,,,,,,,,,,,,,,0,18,18,14,,,,,,,,,,,,,,,,None,,,,,,,,,,,,,,,,,,,,,,,,,None, kipper,"['k', 'i', 'p', 'p', 'e', 'r', 'return']","[0.7795694000087678, 1.1080118000973016, 1.3720742999576032, 1.5387953000608832, 1.698613899992779, 1.9074774000328034, 2.77079900004901]",,,20,001,B,2023_Jan_31_1144,student_TT_local,2021.1.4,59.93561715822562,
,None,None,None,None,None,None,None,None,None,None,mangle,satire,6.5,7.5,video&audio/sentence1_TT_3X.mp4,video&audio/ritual_TT_3X.mp4,warble,ritual,None,,,,,,,,,,,,,,,,,,,,,,,,,,,,,,,,,,,,,,,,,,,,,,,,,,,,,,,,,,,0,19,19,24,,,,,,,,,,,,,,,,None,,,,,,,,,,,,,,,,,,,,,,,,,None, ritual,"['r', 'i', 't', 'u', 'a', 'l', 'return']","[1.143392900004983, 1.5662773998919874, 1.7824476000387222, 1.9825611000414938, 2.7912095999345183, 3.0382813999895006, 3.718501100083813]",,,20,001,B,2023_Jan_31_1144,student_TT_local,2021.1.4,59.93561715822562,
,None,None,None,None,None,None,None,None,None,None,output,convoy,6.5,7.5,video&audio/sentence1_TT_3X.mp4,video&audio/parcel_TT_3X.mp4,uphold,parcel,None,,,,,,,,,,,,,,,,,,,,,,,,,,,,,,,,,,,,,,,,,,,,,,,,,,,,,,,,,,,0,20,20,18,,,,,,,,,,,,,,,,None,,,,,,,,,,,,,,,,,,,,,,,,,None, parcel,"['a', 'r', 'c', 'e', 'l', 'return']","[0.7749901001807302, 1.0065293000079691, 2.3182647000066936, 2.5267292000353336, 2.7182111002039164, 3.4944233000278473]",,,20,001,B,2023_Jan_31_1144,student_TT_local,2021.1.4,59.93561715822562,
,None,None,None,None,None,None,None,None,None,None,oblige,infirm,19.5,20.5,video&audio/Sentence4_touch_edited.mp4,video&audio/cervix_touch_edited.mp4,mystic,cervix,None,,,,,,,,,,,,,,,,,,,,,,,,,,,,,,,,,,,,,,,,,,,,,,,,,,,,,,,,,,,0,21,21,3,,,,,,,,,,,,,,,,None,,,,,,,,,,,,,,,,,,,,,,,,,None, cervix,"['c', 'e', 'r', 'v', 'i', 'x', 'return']","[0.6207606999669224, 0.9568298000376672, 1.1818699999712408, 2.0447245999239385, 2.2134635001420975, 2.5332247000187635, 3.4533828001003712]",,,20,001,B,2023_Jan_31_1144,student_TT_local,2021.1.4,59.93561715822562,
,"This is Section 2.

In this section, your task will be the same as before - that is, to type the word you see on the screen AFTER the typing prompt. However, rather than just seeing the word before typing, you will also see a video of someone typing different words to what you will need to type at different speeds. 

Press 'enter/return' to go to the next page.","This is Section 4. 

In this section, your task will be the same as before - that is, to type the word you see on the screen after the typing prompt. You will see a video again, like in Section 2, only this time, the video will show someone the same word that you must type at different speeds. 

Press 'enter/return' to go to the next page.",video&audio/Example_AOMI_layout.png,1.6,0.6,afford,19.5,20.5,video&audio/amount_touch_edited.mp4,video&audio/afford_touch_edited.mp4,hinder,vanity,19.5,20.5,video&audio/Sentence1_touch_edited.mp4,video&audio/ascend_touch_edited.mp4,breach,ascend,1 = AOMIgen,,,,,,,,,,,,,,,,,,,,,,,,,,,,,,,,,,,,,,,,,,,,,,,,,,,,,,,,,,,0,22,22,0,,,,,,,,,,,,,,,,None,,,,,,,,,,,,,,,,,,,,,,,,,None, ascend,"['a', 's', 'c', 'e', 'n', 'd', 'return']","[0.8890802001114935, 1.241298699984327, 1.6413253000937402, 1.937461300054565, 2.160985000198707, 2.4094750999938697, 3.6022099000401795]",,,20,001,B,2023_Jan_31_1144,student_TT_local,2021.1.4,59.93561715822562,
,None,None,None,None,None,None,None,None,None,None,feudal,impose,6.5,7.5,video&audio/sentence3_TT_3X.mp4,video&audio/subdue_TT_3X.mp4,matron,subdue,None,,,,,,,,,,,,,,,,,,,,,,,,,,,,,,,,,,,,,,,,,,,,,,,,,,,,,,,,,,,0,23,23,26,,,,,,,,,,,,,,,,None,,,,,,,,,,,,,,,,,,,,,,,,,None, subdue,"['s', 'u', 'b', 'd', 'u', 'e', 'return']","[0.9911744999699295, 1.1760696000419557, 1.4481252001132816, 1.6152594001032412, 1.8315401000436395, 2.0154189001768827, 2.7592013999819756]",,,20,001,B,2023_Jan_31_1144,student_TT_local,2021.1.4,59.93561715822562,
,None,None,None,None,None,None,None,None,None,None,tandem,potent,6.5,7.5,video&audio/sentence4_TT_3X.mp4,video&audio/malady_TT_3X.mp4,origin,malady,None,,,,,,,,,,,,,,,,,,,,,,,,,,,,,,,,,,,,,,,,,,,,,,,,,,,,,,,,,,,0,24,24,15,,,,,,,,,,,,,,,,None,,,,,,,,,,,,,,,,,,,,,,,,,None, malady,"['m', 'a', 'a', 'backspace', 'l', 'a', 'd', 'y', 'return']","[1.0956660998053849, 1.2874898998998106, 1.6716872998513281, 2.5762271999847144, 2.9597726999782026, 3.104706499958411, 3.3675867998972535, 3.5834015998989344, 4.519395199837163]",,,20,001,B,2023_Jan_31_1144,student_TT_local,2021.1.4,59.93561715822562,
,None,None,None,None,None,None,None,None,None,None,primal,novice,19.5,20.5,video&audio/Sentence5_touch_edited.mp4,video&audio/confer_touch_edited.mp4,entail,confer,None,,,,,,,,,,,,,,,,,,,,,,,,,,,,,,,,,,,,,,,,,,,,,,,,,,,,,,,,,,,0,25,25,4,,,,,,,,,,,,,,,,None,,,,,,,,,,,,,,,,,,,,,,,,,None, confer,"['c', 'o', 'n', 'f', 'e', 'r', 'return']","[1.1506483000703156, 1.4383010999299586, 1.7502353000454605, 1.9107536000665277, 2.15014489996247, 2.4143376001156867, 3.134240600047633]",,,20,001,B,2023_Jan_31_1144,student_TT_local,2021.1.4,59.93561715822562,
,None,None,None,None,None,None,None,None,None,None,shrewd,mirage,19.5,20.5,video&audio/Sentence1_touch_edited.mp4,video&audio/covert_touch_edited.mp4,revoke,covert,None,,,,,,,,,,,,,,,,,,,,,,,,,,,,,,,,,,,,,,,,,,,,,,,,,,,,,,,,,,,0,26,26,6,,,,,,,,,,,,,,,,None,,,,,,,,,,,,,,,,,,,,,,,,,None, covert,"['c', 'o', 'v', 'e', 'r', 't', 'return']","[1.31984160002321, 1.6081481999717653, 1.7929277999792248, 2.09585539996624, 2.2724953999277204, 2.5520421001128852, 3.1599260999355465]",,,20,001,B,2023_Jan_31_1144,student_TT_local,2021.1.4,59.93561715822562,
,None,None,None,None,None,None,None,None,None,None,fungal,brazen,6.5,7.5,video&audio/sentence5_TT_3X.mp4,video&audio/matrix_TT_3X.mp4,mucous,matrix,None,,,,,,,,,,,,,,,,,,,,,,,,,,,,,,,,,,,,,,,,,,,,,,,,,,,,,,,,,,,0,27,27,22,,,,,,,,,,,,,,,,None,,,,,,,,,,,,,,,,,,,,,,,,,None, matrix,"['m', 'a', 't', 'r', 'i', 'x', 'return']","[0.8443849000614136, 1.0684378000441939, 1.2923669000156224, 2.493317299988121, 2.7564555001445115, 3.4526833000127226, 4.164587300037965]",,,20,001,B,2023_Jan_31_1144,student_TT_local,2021.1.4,59.93561715822562,
,None,None,None,None,None,None,None,None,None,None,hamlet,parole,19.5,20.5,video&audio/Sentence4_touch_edited.mp4,video&audio/falter_touch_edited.mp4,shroud,falter,None,,,,,,,,,,,,,,,,,,,,,,,,,,,,,,,,,,,,,,,,,,,,,,,,,,,,,,,,,,,0,28,28,9,,,,,,,,,,,,,,,,None,,,,,,,,,,,,,,,,,,,,,,,,,None, falter,"['f', 'a', 'l', 't', 'e', 'r', 'return']","[0.6797922998666763, 0.9754438998643309, 1.2879506999161094, 1.471449499949813, 1.7594335998874158, 1.9994415000546724, 2.775383099913597]",,,20,001,B,2023_Jan_31_1144,student_TT_local,2021.1.4,59.93561715822562,
,None,None,None,None,None,None,None,None,None,None,meddle,musket,6.5,7.5,video&audio/sentence2_TT_3X.mp4,video&audio/solemn_TT_3X.mp4,divert,solemn,None,,,,,,,,,,,,,,,,,,,,,,,,,,,,,,,,,,,,,,,,,,,,,,,,,,,,,,,,,,,0,29,29,25,,,,,,,,,,,,,,,,None,,,,,,,,,,,,,,,,,,,,,,,,,None, solemn,"['s', 'semicolon', 'backspace', 'o', 'l', 'e', 'm', 'n', 'return']","[0.9714490999467671, 1.2274901999626309, 2.435091699939221, 2.8195966000203043, 3.0672631999477744, 3.539399999892339, 4.347146400017664, 4.595276499865577, 5.5391042998526245]",,,20,001,B,2023_Jan_31_1144,student_TT_local,2021.1.4,59.93561715822562,
,,,,,,,,,,,,,,,,,,,,typingRatingScale.png,"How would you rate your typing performance in the previous section?

Press a number on your keyboard according to the rating scale below to give your answer. Your first answer will be accepted.",,,,,,,,,,,,,,,,,,,,,,,,,,,,,,,,,,,,,,,,,,,,,,,,,,,,,,,,,,,,,0,0,0,0,,,,,,,,,,,,,,,,,,,,,,,,,,,,,,,,,,,,,,,,,['4'],[4.826403999933973],20,001,B,2023_Jan_31_1144,student_TT_local,2021.1.4,59.93561715822562,
,,,,,,,,,,,,,,,,,,,,visualImageryScale.png,"While imagining yourself typing, how clear was your visual image?

Press a number on your keyboard according to the rating scale below to give your answer. Your first answer will be accepted.",,,,,,,,,,,,,,,,,,,,,,,,,,,,,,,,,,,,,,,,,,,,,,,,,,,,,,,,,,,,,0,1,1,1,,,,,,,,,,,,,,,,,,,,,,,,,,,,,,,,,,,,,,,,,['5'],[2.647399100009352],20,001,B,2023_Jan_31_1144,student_TT_local,2021.1.4,59.93561715822562,
,,,,,,,,,,,,,,,,,,,,kinestheticImageryScale.png,"While imagining yourself typing, how intense were the sensations associated with the imagined movement?

Press a number on your keyboard according to the rating scale below to give your answer. Your first answer will be accepted.",,,,,,,,,,,,,,,,,,,,,,,,,,,,,,,,,,,,,,,,,,,,,,,,,,,,,,,,,,,,,0,2,2,2,,,,,,,,,,,,,,,,,,,,,,,,,,,,,,,,,,,,,,,,,['5'],[6.15926230000332],20,001,B,2023_Jan_31_1144,student_TT_local,2021.1.4,59.93561715822562,
