pracWords,instr_1,instr_2,AOMI_Ima,AOMI_w,AOMI_h,practiceWords,prac_time,prac_bkgd_time,pracVid_1,pracVid_2,baseline_words,control_words,cont_time,cont_bgkd_time,first_vids,second_vids,AOMIfirst_words,AOMIsecond_words,Order,ratingScale,rateInstr,instructLoop.thisRepN,instructLoop.thisTrialN,instructLoop.thisN,instructLoop.thisIndex,practice_control.thisRepN,practice_control.thisTrialN,practice_control.thisN,practice_control.thisIndex,trials_1.thisRepN,trials_1.thisTrialN,trials_1.thisN,trials_1.thisIndex,baseRateLoop.thisRepN,baseRateLoop.thisTrialN,baseRateLoop.thisN,baseRateLoop.thisIndex,AOMIinstrLoop1.thisRepN,AOMIinstrLoop1.thisTrialN,AOMIinstrLoop1.thisN,AOMIinstrLoop1.thisIndex,AOMIpracLoop.thisRepN,AOMIpracLoop.thisTrialN,AOMIpracLoop.thisN,AOMIpracLoop.thisIndex,trials_2.thisRepN,trials_2.thisTrialN,trials_2.thisN,trials_2.thisIndex,AOMI1rateLoop.thisRepN,AOMI1rateLoop.thisTrialN,AOMI1rateLoop.thisN,AOMI1rateLoop.thisIndex,contInstrLoop.thisRepN,contInstrLoop.thisTrialN,contInstrLoop.thisN,contInstrLoop.thisIndex,contPracLoop.thisRepN,contPracLoop.thisTrialN,contPracLoop.thisN,contPracLoop.thisIndex,trials_3.thisRepN,trials_3.thisTrialN,trials_3.thisN,trials_3.thisIndex,contRateLoop.thisRepN,contRateLoop.thisTrialN,contRateLoop.thisN,contRateLoop.thisIndex,AOMIinstrLoop2.thisRepN,AOMIinstrLoop2.thisTrialN,AOMIinstrLoop2.thisN,AOMIinstrLoop2.thisIndex,AOMIpracLoop2.thisRepN,AOMIpracLoop2.thisTrialN,AOMIpracLoop2.thisN,AOMIpracLoop2.thisIndex,trials_4.thisRepN,trials_4.thisTrialN,trials_4.thisN,trials_4.thisIndex,AOMI2rateLoop.thisRepN,AOMI2rateLoop.thisTrialN,AOMI2rateLoop.thisN,AOMI2rateLoop.thisIndex,pracBkgdKeys.keys,pracBkgdKeys.rt,pracKeys.keys,pracKeys.rt,baseBkgdKeys.keys,base_typedWord,baseKeys.keys,baseKeys.rt,baseRateTypeKey.keys,baseRateTypeKey.rt,AOMI1_BkgdKeys.keys,AOMI_promptBkgdKeys.keys,AOMI1pracKeys.keys,AOMI1pracKeys.rt,AOMI1bkdgKeys.keys,AOMI1_typedWord,AOMI1keys.keys,AOMI1keys.rt,AOMI1bkdgKeys.rt,AOMI1rateTypeKey.keys,AOMI1rateTypeKey.rt,polygon_prac.started,polygon_prac.stopped,contBkgdKeys_prac.keys,contPrac_typedWord,contKeys_prac.keys,contKeys_prac.rt,polygon.started,polygon.stopped,contBkgdKeys.keys,cont_typedWord,contKeys.keys,contKeys.rt,contTypeKey.keys,contTypeKey.rt,bkgdkeys_prac2.keys,bkgdKeys4.keys,AOMI2_typedWord,keyboardCom4.keys,keyboardCom4.rt,bkgdKeys4.rt,AOMI2typeKey.keys,AOMI2typeKey.rt,participant,session,group,date,expName,psychopyVersion,frameRate,
replay,,,,,,,,,,,,,,,,,,,,,,,,,,0,0,0,1,,,,,,,,,,,,,,,,,,,,,,,,,,,,,,,,,,,,,,,,,,,,,,,,,,,,,,,,,"['r', 'e']","[2.6841117999974813, 2.756135899999208]","['l', 'a', 'y', 'backspace', 'backspace', 'backspace', 'backspace', 'r', 'e', 'p', 'l', 'a', 'y', 'return']","[0.1310239000013098, 0.2592999000007694, 0.45095500000024913, 2.0669371000003594, 2.258891000001313, 2.450978100001521, 2.747400000000198, 3.258892300000298, 3.3549096999995527, 3.5307939000012993, 3.603027600001951, 3.7473653000015474, 3.9069588000020303, 4.74731900000188]",,,,,,,,,,,,,,,,,,,,,,,,,,,,,,,,,,,,,,,,21,001,E,2023_Feb_09_1520,student_TT_local,2021.1.4,48.5125094351209,
height,,,,,,,,,,,,,,,,,,,,,,,,,,0,1,1,0,,,,,,,,,,,,,,,,,,,,,,,,,,,,,,,,,,,,,,,,,,,,,,,,,,,,,,,,,['h'],[2.919646599999396],"['e', 'i', 'backspace', 'backspace', 'h', 'e', 'i', 'g', 'h', 't', 'return']","[0.060744599999452475, 0.19691000000239, 1.5404138000012608, 1.7646129000022484, 4.500655200001347, 4.644510699999955, 4.780661400000099, 5.068528600000718, 5.236851100002241, 5.3885320000008505, 7.94860300000073]",,,,,,,,,,,,,,,,,,,,,,,,,,,,,,,,,,,,,,,,21,001,E,2023_Feb_09_1520,student_TT_local,2021.1.4,48.5125094351209,
update,,,,,,,,,,,,,,,,,,,,,,,,,,0,2,2,2,,,,,,,,,,,,,,,,,,,,,,,,,,,,,,,,,,,,,,,,,,,,,,,,,,,,,,,,,None,,"['u', 'p', 'd', 'a', 't', 'e', 'w', 'return']","[0.5001831999979913, 0.6042569999990519, 1.028250899998966, 1.1004190999992716, 1.5006227000012586, 1.6280518999992637, 1.6367175999985193, 2.1563863000010315]",,,,,,,,,,,,,,,,,,,,,,,,,,,,,,,,,,,,,,,,21,001,E,2023_Feb_09_1520,student_TT_local,2021.1.4,48.5125094351209,
,None,None,None,None,None,None,None,None,None,None,malady,shrewd,6.5,7.5,video&audio/revoke_TT_3X.mp4,video&audio/sentence1_TT_3X.mp4,revoke,mirage,None,,,,,,,,,,,0,0,0,6,,,,,,,,,,,,,,,,,,,,,,,,,,,,,,,,,,,,,,,,,,,,,,,,,,,,,,,,,None, malady,"['m', 'a', 'l', 'a', 'd', 'y', 'return']","[0.6089503000002878, 0.7209779000004346, 1.2488531000017247, 1.3933305999998993, 1.9208978999995452, 1.9929623999996693, 2.480906299999333]",,,,,,,,,,,,,,,,,,,,,,,,,,,,,,,,,,,,21,001,E,2023_Feb_09_1520,student_TT_local,2021.1.4,48.5125094351209,
,None,None,None,None,None,None,None,None,None,None,cervix,cobble,19.5,20.5,video&audio/export_touch_edited.mp4,video&audio/Sentence2_touch_edited.mp4,export,savant,None,,,,,,,,,,,0,1,1,19,,,,,,,,,,,,,,,,,,,,,,,,,,,,,,,,,,,,,,,,,,,,,,,,,,,,,,,,,None, cervix,"['c', 'e', 'r', 'v', 'i', 'x', 'pound', 'backspace', 'return']","[0.6038245999989158, 0.7798934999991616, 1.0436695999997028, 1.2677479999983916, 1.5236955000000307, 1.7556810999994923, 1.8997340999994776, 2.699792499999603, 2.843761000000086]",,,,,,,,,,,,,,,,,,,,,,,,,,,,,,,,,,,,21,001,E,2023_Feb_09_1520,student_TT_local,2021.1.4,48.5125094351209,
,None,None,None,None,None,None,None,None,None,None,pulpit,oblige,6.5,7.5,video&audio/mystic_TT_3X.mp4,video&audio/sentence4_TT_3X.mp4,mystic,infirm,None,,,,,,,,,,,0,2,2,3,,,,,,,,,,,,,,,,,,,,,,,,,,,,,,,,,,,,,,,,,,,,,,,,,,,,,,,,,None, pulpit,"['p', 'u', 'l', 'p', 'i', 't', 'return']","[0.7309447999978147, 0.8507817999998224, 1.0987982000006014, 1.3627706999977818, 1.7790223999982118, 2.03488329999891, 2.3547256999991077]",,,,,,,,,,,,,,,,,,,,,,,,,,,,,,,,,,,,21,001,E,2023_Feb_09_1520,student_TT_local,2021.1.4,48.5125094351209,
,None,None,None,None,None,None,None,None,None,None,obsess,zephyr,6.5,7.5,video&audio/fusion_TT_3X.mp4,video&audio/sentence5_TT_3X.mp4,fusion,critic,None,,,,,,,,,,,0,3,3,10,,,,,,,,,,,,,,,,,,,,,,,,,,,,,,,,,,,,,,,,,,,,,,,,,,,,,,,,,None, obsess,"['o', 'b', 's', 'e', 's', 's', 'return']","[0.7081535999968764, 0.9163507999983267, 1.5085558999999193, 1.6765871999996307, 1.9725113999993482, 2.1483494999993127, 2.300374099999317]",,,,,,,,,,,,,,,,,,,,,,,,,,,,,,,,,,,,21,001,E,2023_Feb_09_1520,student_TT_local,2021.1.4,48.5125094351209,
,None,None,None,None,None,None,None,None,None,None,belfry,girdle,19.5,20.5,video&audio/linear_touch_edited.mp4,video&audio/Sentence6_touch_edited.mp4,linear,impose,None,,,,,,,,,,,0,4,4,23,,,,,,,,,,,,,,,,,,,,,,,,,,,,,,,,,,,,,,,,,,,,,,,,,,,,,,,,,None, belfry,"['b', 'e', 'l', 'f', 'r', 'y', 'return', 'pound']","[0.6863322999997763, 0.8307113999981084, 1.0064499999971304, 1.3744086999977299, 1.6145025999976497, 1.7744308000001183, 2.038391199999751, 2.046321399997396]",,,,,,,,,,,,,,,,,,,,,,,,,,,,,,,,,,,,21,001,E,2023_Feb_09_1520,student_TT_local,2021.1.4,48.5125094351209,
,None,None,None,None,None,None,None,None,None,None,virile,joiner,6.5,7.5,video&audio/apathy_TT_3X.mp4,video&audio/sentence6_TT_3X.mp4,apathy,revolt,None,,,,,,,,,,,0,5,5,5,,,,,,,,,,,,,,,,,,,,,,,,,,,,,,,,,,,,,,,,,,,,,,,,,,,,,,,,,None, virile,"['v', 'i', 'r', 'i', 'l', 'e', 'return']","[0.8756532999977935, 1.059649700000591, 1.3794696000004478, 1.5154633999991347, 1.7634674999972049, 1.9153805999994802, 2.083630400000402]",,,,,,,,,,,,,,,,,,,,,,,,,,,,,,,,,,,,21,001,E,2023_Feb_09_1520,student_TT_local,2021.1.4,48.5125094351209,
,"Remember to type as QUICKLY and ACCURATELY as possible after the 'get ready' prompt.

Ask the experimenter any questions now. Please put on the headphones.

You will get one practice trial. Press 'enter/return' when you are ready to start the practice.","Remember to type as QUICKLY and ACCURATELY as you can after the 'get ready' prompt.

Ask the experimenter any questions now. Please put on the headphones.

You will get one practice trial. Press 'enter/return' when you are ready to start the practice.",video&audio/Example_AOMI_total.png,1.8,0.7,None,None,None,None,None,frugal,oppose,6.5,7.5,video&audio/ghetto_TT_3X.mp4,video&audio/sentence3_TT_3X.mp4,ghetto,jargon,None,,,,,,,,,,,0,6,6,2,,,,,,,,,,,,,,,,,,,,,,,,,,,,,,,,,,,,,,,,,,,,,,,,,,,,,,,,,None, frugal,"['f', 'r', 'u', 'g', 'a', 'l', 'return']","[0.5130274000002828, 0.6730029999998806, 0.8330456999974558, 1.1213113999983761, 1.2810177999999723, 1.4656264999975974, 1.7449766999998246]",,,,,,,,,,,,,,,,,,,,,,,,,,,,,,,,,,,,21,001,E,2023_Feb_09_1520,student_TT_local,2021.1.4,48.5125094351209,
,None,None,None,None,None,None,None,None,None,None,falter,tandem,19.5,20.5,video&audio/origin_touch_edited.mp4,video&audio/Sentence4_touch_edited.mp4,origin,coerce,None,,,,,,,,,,,0,7,7,15,,,,,,,,,,,,,,,,,,,,,,,,,,,,,,,,,,,,,,,,,,,,,,,,,,,,,,,,,None, falter,"['f', 'a', 'l', 't', 'e', 'r', 'return']","[0.3457842999996501, 0.44195159999799216, 0.6420699000009336, 0.9937296999996761, 1.0977994999993825, 1.2899945999997726, 1.409769800000504]",,,,,,,,,,,,,,,,,,,,,,,,,,,,,,,,,,,,21,001,E,2023_Feb_09_1520,student_TT_local,2021.1.4,48.5125094351209,
,None,None,None,None,None,None,None,None,None,None,parcel,primal,6.5,7.5,video&audio/entail_TT_3X.mp4,video&audio/sentence5_TT_3X.mp4,entail,novice,None,,,,,,,,,,,0,8,8,4,,,,,,,,,,,,,,,,,,,,,,,,,,,,,,,,,,,,,,,,,,,,,,,,,,,,,,,,,None, parcel,"['p', 'a', 'r', 'c', 'e', 'l', 'return']","[0.43308880000040517, 0.5131538999994518, 0.7852032000009785, 1.1690684000022884, 1.289462700002332, 1.465501700000459, 1.6650468000007095]",,,,,,,,,,,,,,,,,,,,,,,,,,,,,,,,,,,,21,001,E,2023_Feb_09_1520,student_TT_local,2021.1.4,48.5125094351209,
,None,None,None,None,None,None,None,None,None,None,forage,campus,19.5,20.5,video&audio/allure_touch_edited.mp4,video&audio/Sentence6_touch_edited.mp4,allure,binder,None,,,,,,,,,,,0,9,9,29,,,,,,,,,,,,,,,,,,,,,,,,,,,,,,,,,,,,,,,,,,,,,,,,,,,,,,,,,None, forage,"['f', 'o', 'r', 'a', 'g', 'e', 'return']","[0.3401181999979599, 0.42007059999741614, 0.6200072999999975, 0.8282392000000982, 1.0120963999979722, 1.1640530999975454, 1.3401897000003373]",,,,,,,,,,,,,,,,,,,,,,,,,,,,,,,,,,,,21,001,E,2023_Feb_09_1520,student_TT_local,2021.1.4,48.5125094351209,
,"While you watch the video, imagine yourself typing the word on the screen, like how you did in the imagery practice. While you watch the video and imagine this, rest your hands on your keyboard but DO NOT type until AFTER you see the typing prompt.

Press 'enter/return' to go to the next page.","While watching the video, imagine yourself typing the word on the screen, like how you did in the imagery practice. While you watch the video and imagine this, rest your hands on your keyboard but DO NOT type until AFTER you see the typing prompt.

Press 'enter/return' to go to the next page.",video&audio/Example_AOMI_imagine.png,1.6,1,butter,6.5,7.5,video&audio/butter_TT_3X.mp4,video&audio/amount_TT_3X.mp4,ascend,metric,6.5,7.5,video&audio/eatery_TT_3X.mp4,video&audio/sentence2_TT_3X.mp4,eatery,plight,2 = AOMIgen,,,,,,,,,,,0,10,10,1,,,,,,,,,,,,,,,,,,,,,,,,,,,,,,,,,,,,,,,,,,,,,,,,,,,,,,,,,None, ascend,"['a', 's', 'c', 'e', 'n', 'd', 'return']","[0.41116630000033183, 0.539309100000537, 0.8351760000005015, 1.0191696000001684, 1.2273979999990843, 1.3792222999982187, 1.5314711999999417]",,,,,,,,,,,,,,,,,,,,,,,,,,,,,,,,,,,,21,001,E,2023_Feb_09_1520,student_TT_local,2021.1.4,48.5125094351209,
,None,None,None,None,None,None,None,None,None,None,hippie,hearth,6.5,7.5,video&audio/herbal_TT_3X.mp4,video&audio/sentence3_TT_3X.mp4,herbal,deduct,None,,,,,,,,,,,0,11,11,14,,,,,,,,,,,,,,,,,,,,,,,,,,,,,,,,,,,,,,,,,,,,,,,,,,,,,,,,,None, hoppoe,"['h', 'o', 'p', 'p', 'o', 'e', 'return']","[0.34265050000249175, 0.43062990000180434, 0.6950047999998787, 0.8626096000007237, 1.0546356000013475, 1.1987447999999858, 1.3587413000022934]",,,,,,,,,,,,,,,,,,,,,,,,,,,,,,,,,,,,21,001,E,2023_Feb_09_1520,student_TT_local,2021.1.4,48.5125094351209,
,None,None,None,None,None,None,None,None,None,None,subdue,feudal,19.5,20.5,video&audio/matron_touch_edited.mp4,video&audio/Sentence3_touch_edited.mp4,matron,legion,None,,,,,,,,,,,0,12,12,26,,,,,,,,,,,,,,,,,,,,,,,,,,,,,,,,,,,,,,,,,,,,,,,,,,,,,,,,,None, subdue,"['s', 'u', 'b', 'd', 'u', 'e', 'return']","[0.4627398999982688, 0.550840200001403, 0.7589293999990332, 0.9747723000000406, 1.2947353000017756, 1.4389354000013554, 1.5668111000013596]",,,,,,,,,,,,,,,,,,,,,,,,,,,,,,,,,,,,21,001,E,2023_Feb_09_1520,student_TT_local,2021.1.4,48.5125094351209,
,None,None,None,None,None,None,None,None,None,None,neural,septic,6.5,7.5,video&audio/innate_TT_3X.mp4,video&audio/sentence2_TT_3X.mp4,ordain,potent,None,,,,,,,,,,,0,13,13,13,,,,,,,,,,,,,,,,,,,,,,,,,,,,,,,,,,,,,,,,,,,,,,,,,,,,,,,,,None, neural,"['n', 'e', 'u', 'r', 'a', 'l', 'return']","[0.46971879999910016, 0.7816482999987784, 0.8938985999993747, 1.1895113999999012, 1.405827999999019, 1.6056981999972777, 1.8535849999971106]",,,,,,,,,,,,,,,,,,,,,,,,,,,,,,,,,,,,21,001,E,2023_Feb_09_1520,student_TT_local,2021.1.4,48.5125094351209,
,None,None,None,None,None,None,None,None,None,None,botany,trench,19.5,20.5,video&audio/ethnic_touch_edited.mp4,video&audio/Sentence4_touch_edited.mp4,ethnic,goblet,None,,,,,,,,,,,0,14,14,27,,,,,,,,,,,,,,,,,,,,,,,,,,,,,,,,,,,,,,,,,,,,,,,,,,,,,,,,,None, botany,"['b', 'o', 't', 'a', 'n', 'y', 'return']","[0.3464176999987103, 0.4344182999993791, 0.6101691000003484, 0.850155399999494, 1.0261294999982056, 1.2741898999993282, 1.370184600000357]",,,,,,,,,,,,,,,,,,,,,,,,,,,,,,,,,,,,21,001,E,2023_Feb_09_1520,student_TT_local,2021.1.4,48.5125094351209,
,None,None,None,None,None,None,None,None,None,None,picket,parish,19.5,20.5,video&audio/gullet_touch_edited.mp4,video&audio/Sentence5_touch_edited.mp4,gullet,manure,None,,,,,,,,,,,0,15,15,28,,,,,,,,,,,,,,,,,,,,,,,,,,,,,,,,,,,,,,,,,,,,,,,,,,,,,,,,,None, picket,"['p', 'i', 'c', 'k', 'e', 't', 'return']","[0.47465229999943404, 0.554733999997552, 0.8194096999977774, 1.0666949999977078, 1.1389868999976898, 1.4032108999999764, 1.4909268999981578]",,,,,,,,,,,,,,,,,,,,,,,,,,,,,,,,,,,,21,001,E,2023_Feb_09_1520,student_TT_local,2021.1.4,48.5125094351209,
,None,None,None,None,None,None,None,None,None,None,kipper,meddle,19.5,20.5,video&audio/divert_touch_edited.mp4,video&audio/Sentence2_touch_edited.mp4,divert,upkeep,None,,,,,,,,,,,0,16,16,25,,,,,,,,,,,,,,,,,,,,,,,,,,,,,,,,,,,,,,,,,,,,,,,,,,,,,,,,,None, kipper,"['k', 'i', 'p', 'p', 'e', 'r', 'return']","[0.3265768000019307, 0.5262662999994063, 0.7265994000008504, 0.8465671000012662, 1.0301943000013125, 1.2304428000024927, 1.3503406000018003]",,,,,,,,,,,,,,,,,,,,,,,,,,,,,,,,,,,,21,001,E,2023_Feb_09_1520,student_TT_local,2021.1.4,48.5125094351209,
,None,None,None,None,None,None,None,None,None,None,debtor,output,19.5,20.5,video&audio/uphold_touch_edited.mp4,video&audio/Sentence1_touch_edited.mp4,uphold,pursue,None,,,,,,,,,,,0,17,17,18,,,,,,,,,,,,,,,,,,,,,,,,,,,,,,,,,,,,,,,,,,,,,,,,,,,,,,,,,None, debtor,"['d', 'e', 'b', 't', 'o', 'r', 'return']","[0.33092260000194074, 0.4425851000014518, 0.6427987000024586, 0.8585758000008354, 1.0188674000019091, 1.2105110000011337, 1.3225489000033122]",,,,,,,,,,,,,,,,,,,,,,,,,,,,,,,,,,,,21,001,E,2023_Feb_09_1520,student_TT_local,2021.1.4,48.5125094351209,
,None,None,None,None,None,None,None,None,None,None,cortex,induce,19.5,20.5,video&audio/mussel_touch_edited.mp4,video&audio/Sentence4_touch_edited.mp4,mussel,satire,None,,,,,,,,,,,0,18,18,21,,,,,,,,,,,,,,,,,,,,,,,,,,,,,,,,,,,,,,,,,,,,,,,,,,,,,,,,,None, cortex,"['c', 'o', 'r', 't', 'e', 'x', 'return']","[0.3238636000023689, 0.435945700002776, 0.7639082000023336, 1.0279547000027378, 1.2199684000006528, 1.5080792000007932, 1.6442514000009396]",,,,,,,,,,,,,,,,,,,,,,,,,,,,,,,,,,,,21,001,E,2023_Feb_09_1520,student_TT_local,2021.1.4,48.5125094351209,
,None,None,None,None,None,None,None,None,None,None,tariff,delude,6.5,7.5,video&audio/galley_TT_3X.mp4,video&audio/sentence2_TT_3X.mp4,galley,strife,None,,,,,,,,,,,0,19,19,7,,,,,,,,,,,,,,,,,,,,,,,,,,,,,,,,,,,,,,,,,,,,,,,,,,,,,,,,,None, tariff,"['t', 'a', 'r', 'i', 'f', 'f', 'return']","[0.36799510000128066, 0.46365870000227005, 0.7598142999995616, 0.9117528999995557, 1.1037682000023779, 1.2719268000000739, 1.375810100002127]",,,,,,,,,,,,,,,,,,,,,,,,,,,,,,,,,,,,21,001,E,2023_Feb_09_1520,student_TT_local,2021.1.4,48.5125094351209,
,None,None,None,None,None,None,None,None,None,None,solemn,befall,6.5,7.5,video&audio/ration_TT_3X.mp4,video&audio/sentence3_TT_3X.mp4,ration,parole,None,,,,,,,,,,,0,20,20,8,,,,,,,,,,,,,,,,,,,,,,,,,,,,,,,,,,,,,,,,,,,,,,,,,,,,,,,,,None, solemn,"['s', 'o', 'l', 'e', 'm', 'n', 'return']","[0.32121279999773833, 0.4167998999982956, 0.6489411000002292, 0.8095332000011695, 1.1131442000005336, 1.2894526999989466, 1.5208863000007113]",,,,,,,,,,,,,,,,,,,,,,,,,,,,,,,,,,,,21,001,E,2023_Feb_09_1520,student_TT_local,2021.1.4,48.5125094351209,
,"This is Section 2.

In this section, your task will be the same as before - that is, to type the word you see on the screen after the typing prompt. However, rather than just seeing the word before typing, you will also see a video of someone typing the same word you will need to type at various speeds. 

Press 'enter/return' to go to the next page.","This is Section 4. 

In this section, your task will be the same as before - that is, to type the word you see on the screen after the typing prompt. You will see a video again, like in Section 2, only this time, the video will show someone typing different words to what you must type at various speeds. 

Press 'enter/return' to go to the next page.",video&audio/Example_AOMI_layout.png,1.6,0.6,afford,19.5,20.5,video&audio/afford_touch_edited.mp4,video&audio/amount_touch_edited.mp4,matrix,hinder,6.5,7.5,video&audio/breach_TT_3X.mp4,video&audio/sentence1_TT_3X.mp4,breach,vanity,1 = AOMIspec,,,,,,,,,,,0,21,21,0,,,,,,,,,,,,,,,,,,,,,,,,,,,,,,,,,,,,,,,,,,,,,,,,,,,,,,,,,None, matrix,"['m', 'a', 't', 'r', 'i', 'x', 'return']","[0.3726948999974411, 0.43635599999834085, 0.6444437999998627, 0.8684124999999767, 1.0042221999974572, 1.2443313999974634, 1.3644127000006847]",,,,,,,,,,,,,,,,,,,,,,,,,,,,,,,,,,,,21,001,E,2023_Feb_09_1520,student_TT_local,2021.1.4,48.5125094351209,
,None,None,None,None,None,None,None,None,None,None,confer,innate,6.5,7.5,video&audio/tamper_TT_3X.mp4,video&audio/sentence1_TT_3X.mp4,tamper,sonnet,None,,,,,,,,,,,0,22,22,12,,,,,,,,,,,,,,,,,,,,,,,,,,,,,,,,,,,,,,,,,,,,,,,,,,,,,,,,,None, confer,"['c', 'o', 'n', 'f', 'e', 'r', 'return']","[0.4602078000025358, 0.51632360000076, 0.7242064000020036, 1.084373300000152, 1.2121542999993835, 1.3563589000004868, 1.4686022000023513]",,,,,,,,,,,,,,,,,,,,,,,,,,,,,,,,,,,,21,001,E,2023_Feb_09_1520,student_TT_local,2021.1.4,48.5125094351209,
,None,None,None,None,None,None,None,None,None,None,ritual,clergy,19.5,20.5,video&audio/portal_touch_edited.mp4,video&audio/Sentence6_touch_edited.mp4,portal,murmur,None,,,,,,,,,,,0,23,23,17,,,,,,,,,,,,,,,,,,,,,,,,,,,,,,,,,,,,,,,,,,,,,,,,,,,,,,,,,None, ritua;,"['r', 'i', 'u', 'a', 'semicolon', 'return']","[0.33988809999937075, 0.45977530000163824, 0.867955500001699, 1.019887700000254, 1.2439985000019078, 1.483894799999689]",,,,,,,,,,,,,,,,,,,,,,,,,,,,,,,,,,,,21,001,E,2023_Feb_09_1520,student_TT_local,2021.1.4,48.5125094351209,
,None,None,None,None,None,None,None,None,None,None,piston,caviar,19.5,20.5,video&audio/shrill_touch_edited.mp4,video&audio/Sentence3_touch_edited.mp4,shrill,brazen,None,,,,,,,,,,,0,24,24,20,,,,,,,,,,,,,,,,,,,,,,,,,,,,,,,,,,,,,,,,,,,,,,,,,,,,,,,,,None, piston,"['p', 'i', 's', 't', 'o', 'n', 'return']","[0.5024861999991117, 0.5747682000001078, 0.742610400000558, 0.9905739999994694, 1.1187140000001818, 1.3667238000016368, 1.774674700001924]",,,,,,,,,,,,,,,,,,,,,,,,,,,,,,,,,,,,21,001,E,2023_Feb_09_1520,student_TT_local,2021.1.4,48.5125094351209,
,None,None,None,None,None,None,None,None,None,None,devise,mangle,19.5,20.5,video&audio/warble_touch_edited.mp4,video&audio/Sentence1_touch_edited.mp4,warble,fodder,None,,,,,,,,,,,0,25,25,24,,,,,,,,,,,,,,,,,,,,,,,,,,,,,,,,,,,,,,,,,,,,,,,,,,,,,,,,,None, devise,"['d', 'e', 'v', 'i', 's', 'e', 'return']","[0.5903642000012042, 0.8064360999997007, 0.9905166999997164, 1.2065302000009979, 1.3425480000005336, 1.4944486999993387, 2.1903333000009297]",,,,,,,,,,,,,,,,,,,,,,,,,,,,,,,,,,,,21,001,E,2023_Feb_09_1520,student_TT_local,2021.1.4,48.5125094351209,
,None,None,None,None,None,None,None,None,None,None,covert,patent,6.5,7.5,video&audio/defame_TT_3X.mp4,video&audio/sentence6_TT_3X.mp4,defame,quarry,None,,,,,,,,,,,0,26,26,11,,,,,,,,,,,,,,,,,,,,,,,,,,,,,,,,,,,,,,,,,,,,,,,,,,,,,,,,,None, covert,"['c', 'o', 'v', 'e', 'r', 't', 'return']","[0.3084619000001112, 0.39655109999876004, 0.7246008000001893, 0.8211149999988265, 0.9325633000007656, 1.1726086000016949, 1.2926590999995824]",,,,,,,,,,,,,,,,,,,,,,,,,,,,,,,,,,,,21,001,E,2023_Feb_09_1520,student_TT_local,2021.1.4,48.5125094351209,
,None,None,None,None,None,None,None,None,None,None,subtle,fungal,19.5,20.5,video&audio/mucous_touch_edited.mp4,video&audio/Sentence5_touch_edited.mp4,mucous,musket,None,,,,,,,,,,,0,27,27,22,,,,,,,,,,,,,,,,,,,,,,,,,,,,,,,,,,,,,,,,,,,,,,,,,,,,,,,,,None, subtle,"['s', 'u', 'b', 'e', 'backspace', 't', 'l', 'e', 'return']","[0.6734975999970629, 0.7448256999996374, 0.9608320999977877, 1.2491321999987122, 1.6968779999988328, 1.992802799999481, 2.3368871999991825, 2.4488226999965264, 2.664999999997235]",,,,,,,,,,,,,,,,,,,,,,,,,,,,,,,,,,,,21,001,E,2023_Feb_09_1520,student_TT_local,2021.1.4,48.5125094351209,
,None,None,None,None,None,None,None,None,None,None,jackal,hamlet,6.5,7.5,video&audio/shroud_TT_3X.mp4,video&audio/sentence4_TT_3X.mp4,shroud,sherry,None,,,,,,,,,,,0,28,28,9,,,,,,,,,,,,,,,,,,,,,,,,,,,,,,,,,,,,,,,,,,,,,,,,,,,,,,,,,None, jackal,"['j', 'a', 'c', 'k', 'a', 'l', 'return']","[0.4243408999973326, 0.5364198999996006, 0.7843175999987579, 0.9844175999969593, 1.2082915999999386, 1.4004771999971126, 1.7364987000000838]",,,,,,,,,,,,,,,,,,,,,,,,,,,,,,,,,,,,21,001,E,2023_Feb_09_1520,student_TT_local,2021.1.4,48.5125094351209,
,None,None,None,None,None,None,None,None,None,None,plasma,jailer,19.5,20.5,video&audio/nettle_touch_edited.mp4,video&audio/Sentence5_touch_edited.mp4,nettle,convoy,None,,,,,,,,,,,0,29,29,16,,,,,,,,,,,,,,,,,,,,,,,,,,,,,,,,,,,,,,,,,,,,,,,,,,,,,,,,,None, plasma,"['p', 'l', 'a', 's', 'm', 'a', 'return']","[0.3457980999992287, 0.45774339999843505, 0.6817244999983814, 0.9377263999995193, 1.1220083000007435, 1.2418477999999595, 1.369746699998359]",,,,,,,,,,,,,,,,,,,,,,,,,,,,,,,,,,,,21,001,E,2023_Feb_09_1520,student_TT_local,2021.1.4,48.5125094351209,
,,,,,,,,,,,,,,,,,,,,typingRatingScale.png,"How would you rate your typing performance in the previous section?

Press a number on your keyboard according to the rating scale below to give your answer. Your first answer will be accepted.",,,,,,,,,,,,,0,0,0,0,,,,,,,,,,,,,,,,,,,,,,,,,,,,,,,,,,,,,,,,,,,,,,,,,,,,,,,,,['3'],[21.81919249999919],,,,,,,,,,,,,,,,,,,,,,,,,,,,,,,,,,21,001,E,2023_Feb_09_1520,student_TT_local,2021.1.4,48.5125094351209,
,,,,,,,,,,,,,,,,,,,,imageryCheckScale.png,"In the previous section did you imagine yourself typing?

Press a number on your keyboard according to the rating scale below to give your answer. Your first answer will be accepted.",,,,,,,,,,,,,0,1,1,1,,,,,,,,,,,,,,,,,,,,,,,,,,,,,,,,,,,,,,,,,,,,,,,,,,,,,,,,,['1'],[29.595423099999607],,,,,,,,,,,,,,,,,,,,,,,,,,,,,,,,,,21,001,E,2023_Feb_09_1520,student_TT_local,2021.1.4,48.5125094351209,
,None,None,None,None,None,None,None,None,None,None,pulpit,oblige,6.5,7.5,video&audio/mystic_TT_3X.mp4,video&audio/sentence4_TT_3X.mp4,mystic,infirm,None,,,,,,,,,,,,,,,,,,,,,,,,,,,0,0,0,3,,,,,,,,,,,,,,,,,,,,,,,,,,,,,,,,,,,,,,,,,,,,,,,None,None,"['b', 'u', 't', 't', 'e', 'r', 'return']","[0.5807449000021734, 0.6609978000014962, 0.9168550000031246, 1.0928584000030241, 1.2049183000017365, 1.372738500002015, 1.5247964000009233]",None, mystic,"['m', 'y', 's', 't', 'i', 'c', 'return']","[0.7819547999970382, 1.038065499997174, 1.2217444999987492, 1.5741930999975011, 1.7897245999993174, 2.2144459999981336, 2.3576925999986997]",,,,,,,,,,,,,,,,,,,,,,,,,,21,001,E,2023_Feb_09_1520,student_TT_local,2021.1.4,48.5125094351209,
,None,None,None,None,None,None,None,None,None,None,solemn,befall,6.5,7.5,video&audio/ration_TT_3X.mp4,video&audio/sentence3_TT_3X.mp4,ration,parole,None,,,,,,,,,,,,,,,,,,,,,,,,,,,0,1,1,8,,,,,,,,,,,,,,,,,,,,,,,,,,,,,,,,,,,,,,,,,,,,,,,,None,,,None, ration,"['r', 'a', 't', 'i', 'o', 'n', 'return']","[0.36784239999906276, 0.4561035000006086, 0.7361630000013974, 0.8319424000001163, 0.9042957999990904, 1.151766499999212, 1.3998217000007571]",,,,,,,,,,,,,,,,,,,,,,,,,,21,001,E,2023_Feb_09_1520,student_TT_local,2021.1.4,48.5125094351209,
,None,None,None,None,None,None,None,None,None,None,forage,campus,19.5,20.5,video&audio/allure_touch_edited.mp4,video&audio/Sentence6_touch_edited.mp4,allure,binder,None,,,,,,,,,,,,,,,,,,,,,,,,,,,0,2,2,29,,,,,,,,,,,,,,,,,,,,,,,,,,,,,,,,,,,,,,,,,,,,,,,,None,,,None, allure,"['a', 'l', 'l', 'u', 'r', 'e', 'return']","[0.4545250999981363, 0.6701766999976826, 0.8627964000006614, 1.0544592999976885, 1.1823363000003155, 1.3343198000002303, 1.6462554999998247]",,,,,,,,,,,,,,,,,,,,,,,,,,21,001,E,2023_Feb_09_1520,student_TT_local,2021.1.4,48.5125094351209,
,None,None,None,None,None,None,None,None,None,None,plasma,jailer,19.5,20.5,video&audio/nettle_touch_edited.mp4,video&audio/Sentence5_touch_edited.mp4,nettle,convoy,None,,,,,,,,,,,,,,,,,,,,,,,,,,,0,3,3,16,,,,,,,,,,,,,,,,,,,,,,,,,,,,,,,,,,,,,,,,,,,,,,,,None,,,None, nettle,"['n', 'e', 't', 't', 'l', 'e', 'return']","[0.47909989999971003, 0.5673819000003277, 0.815256900001259, 0.9996237000013934, 1.2234690000004775, 1.6391820999997435, 1.999251600002026]",,,,,,,,,,,,,,,,,,,,,,,,,,21,001,E,2023_Feb_09_1520,student_TT_local,2021.1.4,48.5125094351209,
,None,None,None,None,None,None,None,None,None,None,parcel,primal,6.5,7.5,video&audio/entail_TT_3X.mp4,video&audio/sentence5_TT_3X.mp4,entail,novice,None,,,,,,,,,,,,,,,,,,,,,,,,,,,0,4,4,4,,,,,,,,,,,,,,,,,,,,,,,,,,,,,,,,,,,,,,,,,,,,,,,,None,,,None, entail,"['e', 'n', 't', 'a', 'i', 'l', 'return']","[0.446709899999405, 0.5344685999989451, 0.8064195999977528, 0.9507100999981049, 1.0945517999971344, 1.2388775999970676, 1.5744989999984682]",,,,,,,,,,,,,,,,,,,,,,,,,,21,001,E,2023_Feb_09_1520,student_TT_local,2021.1.4,48.5125094351209,
,None,None,None,None,None,None,None,None,None,None,jackal,hamlet,6.5,7.5,video&audio/shroud_TT_3X.mp4,video&audio/sentence4_TT_3X.mp4,shroud,sherry,None,,,,,,,,,,,,,,,,,,,,,,,,,,,0,5,5,9,,,,,,,,,,,,,,,,,,,,,,,,,,,,,,,,,,,,,,,,,,,,,,,,None,,,['return'], shroud,"['s', 'h', 'r', 'o', 'u', 'd', 'return']","[0.49221850000321865, 0.5805536000007123, 0.8362847000025795, 1.1882067000005918, 1.3161495000022114, 1.5166152000019792, 1.7084650000033434]",[0.23709629999939352],,,,,,,,,,,,,,,,,,,,,,,,,21,001,E,2023_Feb_09_1520,student_TT_local,2021.1.4,48.5125094351209,
,None,None,None,None,None,None,None,None,None,None,subdue,feudal,19.5,20.5,video&audio/matron_touch_edited.mp4,video&audio/Sentence3_touch_edited.mp4,matron,legion,None,,,,,,,,,,,,,,,,,,,,,,,,,,,0,6,6,26,,,,,,,,,,,,,,,,,,,,,,,,,,,,,,,,,,,,,,,,,,,,,,,,None,,,None, matron,"['m', 'a', 't', 'r', 'o', 'n', 'return']","[0.43472509999992326, 0.5303931000016746, 0.8982715000020107, 1.130874100002984, 1.2103115999998408, 1.3306760000014037, 1.5943151999999827]",,,,,,,,,,,,,,,,,,,,,,,,,,21,001,E,2023_Feb_09_1520,student_TT_local,2021.1.4,48.5125094351209,
,None,None,None,None,None,None,None,None,None,None,kipper,meddle,19.5,20.5,video&audio/divert_touch_edited.mp4,video&audio/Sentence2_touch_edited.mp4,divert,upkeep,None,,,,,,,,,,,,,,,,,,,,,,,,,,,0,7,7,25,,,,,,,,,,,,,,,,,,,,,,,,,,,,,,,,,,,,,,,,,,,,,,,,None,,,None, divert,"['d', 'i', 'v', 'e', 'r', 't', 'return']","[0.49398919999657664, 0.6142104999998992, 0.8861918999973568, 0.9980195999996795, 1.109769699996832, 1.3343043999993824, 1.4701005999995687]",,,,,,,,,,,,,,,,,,,,,,,,,,21,001,E,2023_Feb_09_1520,student_TT_local,2021.1.4,48.5125094351209,
,None,None,None,None,None,None,None,None,None,None,obsess,zephyr,6.5,7.5,video&audio/fusion_TT_3X.mp4,video&audio/sentence5_TT_3X.mp4,fusion,critic,None,,,,,,,,,,,,,,,,,,,,,,,,,,,0,8,8,10,,,,,,,,,,,,,,,,,,,,,,,,,,,,,,,,,,,,,,,,,,,,,,,,None,,,None, fusion,"['f', 'u', 's', 'i', 'o', 'n', 'return']","[0.3772874000023876, 0.4576431000023149, 0.6973748000018531, 0.8896085000014864, 1.1053165000012086, 1.3295145000010962, 1.601296299999376]",,,,,,,,,,,,,,,,,,,,,,,,,,21,001,E,2023_Feb_09_1520,student_TT_local,2021.1.4,48.5125094351209,
,None,None,None,None,None,None,None,None,None,None,picket,parish,19.5,20.5,video&audio/gullet_touch_edited.mp4,video&audio/Sentence5_touch_edited.mp4,gullet,manure,None,,,,,,,,,,,,,,,,,,,,,,,,,,,0,9,9,28,,,,,,,,,,,,,,,,,,,,,,,,,,,,,,,,,,,,,,,,,,,,,,,,None,,,None, gullet,"['g', 'u', 'l', 'l', 'e', 't', 'return']","[0.36832780000258936, 0.45628490000308375, 0.6885383000008005, 0.8483198000030825, 0.952404600000591, 1.0803852000026382, 1.2484926000033738]",,,,,,,,,,,,,,,,,,,,,,,,,,21,001,E,2023_Feb_09_1520,student_TT_local,2021.1.4,48.5125094351209,
,None,None,None,None,None,None,None,None,None,None,tariff,delude,6.5,7.5,video&audio/galley_TT_3X.mp4,video&audio/sentence2_TT_3X.mp4,galley,strife,None,,,,,,,,,,,,,,,,,,,,,,,,,,,0,10,10,7,,,,,,,,,,,,,,,,,,,,,,,,,,,,,,,,,,,,,,,,,,,,,,,,None,,,None, galley,"['g', 'a', 'l', 'l', 'e', 'y', 'return']","[0.47505200000159675, 0.6273414999996021, 0.7791074000015215, 0.9390684999998484, 1.2431810000016412, 1.3391083999995317, 1.6673023000003013]",,,,,,,,,,,,,,,,,,,,,,,,,,21,001,E,2023_Feb_09_1520,student_TT_local,2021.1.4,48.5125094351209,
,None,None,None,None,None,None,None,None,None,None,hippie,hearth,6.5,7.5,video&audio/herbal_TT_3X.mp4,video&audio/sentence3_TT_3X.mp4,herbal,deduct,None,,,,,,,,,,,,,,,,,,,,,,,,,,,0,11,11,14,,,,,,,,,,,,,,,,,,,,,,,,,,,,,,,,,,,,,,,,,,,,,,,,None,,,None, herbal,"['h', 'e', 'r', 'b', 'a', 'l', 'return']","[0.38379840000197873, 0.471887700001389, 0.5842235000018263, 0.7282382000012149, 0.8562173000027542, 1.2637458999997762, 1.512199500000861]",,,,,,,,,,,,,,,,,,,,,,,,,,21,001,E,2023_Feb_09_1520,student_TT_local,2021.1.4,48.5125094351209,
,None,None,None,None,None,None,None,None,None,None,debtor,output,19.5,20.5,video&audio/uphold_touch_edited.mp4,video&audio/Sentence1_touch_edited.mp4,uphold,pursue,None,,,,,,,,,,,,,,,,,,,,,,,,,,,0,12,12,18,,,,,,,,,,,,,,,,,,,,,,,,,,,,,,,,,,,,,,,,,,,,,,,,None,,,None, uphold,"['u', 'p', 'h', 'o', 'l', 'd', 'return']","[0.3610221000017191, 0.4406563000011374, 0.696670000001177, 0.8087453000007372, 1.0170699000009336, 1.2250011000032828, 1.4329117000015685]",,,,,,,,,,,,,,,,,,,,,,,,,,21,001,E,2023_Feb_09_1520,student_TT_local,2021.1.4,48.5125094351209,
,None,None,None,None,None,None,None,None,None,None,botany,trench,19.5,20.5,video&audio/ethnic_touch_edited.mp4,video&audio/Sentence4_touch_edited.mp4,ethnic,goblet,None,,,,,,,,,,,,,,,,,,,,,,,,,,,0,13,13,27,,,,,,,,,,,,,,,,,,,,,,,,,,,,,,,,,,,,,,,,,,,,,,,,None,,,None, ethnic,"['e', 't', 'h', 'n', 'i', 'c', 'return']","[0.511466299998574, 0.6155017000019143, 0.76764760000151, 1.2951968999987002, 1.3992016000011063, 1.5514904000010574, 1.7355351000005612]",,,,,,,,,,,,,,,,,,,,,,,,,,21,001,E,2023_Feb_09_1520,student_TT_local,2021.1.4,48.5125094351209,
,None,None,None,None,None,None,None,None,None,None,belfry,girdle,19.5,20.5,video&audio/linear_touch_edited.mp4,video&audio/Sentence6_touch_edited.mp4,linear,impose,None,,,,,,,,,,,,,,,,,,,,,,,,,,,0,14,14,23,,,,,,,,,,,,,,,,,,,,,,,,,,,,,,,,,,,,,,,,,,,,,,,,None,,,None, linear,"['l', 'i', 'n', 'e', 'r', 'backspace', 'a', 'r', 'return']","[0.4906790999993973, 0.6029497000017727, 0.81890100000237, 0.930609099999856, 1.0825863999998546, 1.435791200001404, 1.650679800000944, 1.7626725000009174, 1.9550151000003098]",,,,,,,,,,,,,,,,,,,,,,,,,,21,001,E,2023_Feb_09_1520,student_TT_local,2021.1.4,48.5125094351209,
,None,None,None,None,None,None,None,None,None,None,malady,shrewd,6.5,7.5,video&audio/revoke_TT_3X.mp4,video&audio/sentence1_TT_3X.mp4,revoke,mirage,None,,,,,,,,,,,,,,,,,,,,,,,,,,,0,15,15,6,,,,,,,,,,,,,,,,,,,,,,,,,,,,,,,,,,,,,,,,,,,,,,,,None,,,None, revoke,"['r', 'e', 'v', 'o', 'k', 'e', 'return']","[0.44768910000129836, 0.520193799999106, 1.3598462000009022, 1.4797933000008925, 1.6558382000002894, 1.7838617999987036, 1.959968300001492]",,,,,,,,,,,,,,,,,,,,,,,,,,21,001,E,2023_Feb_09_1520,student_TT_local,2021.1.4,48.5125094351209,
,None,None,None,None,None,None,None,None,None,None,confer,innate,6.5,7.5,video&audio/tamper_TT_3X.mp4,video&audio/sentence1_TT_3X.mp4,tamper,sonnet,None,,,,,,,,,,,,,,,,,,,,,,,,,,,0,16,16,12,,,,,,,,,,,,,,,,,,,,,,,,,,,,,,,,,,,,,,,,,,,,,,,,None,,,None, tamper,"['t', 'a', 'm', 'p', 'e', 'r', 'return']","[0.2922913000002154, 0.5005359999995562, 0.9485858000007283, 1.2123365000006743, 1.3324905000008584, 1.436258400000952, 1.652330200002325]",,,,,,,,,,,,,,,,,,,,,,,,,,21,001,E,2023_Feb_09_1520,student_TT_local,2021.1.4,48.5125094351209,
,"Remember to type as QUICKLY and ACCURATELY as possible after the 'get ready' prompt.

Ask the experimenter any questions now. Please put on the headphones.

You will get one practice trial. Press 'enter/return' when you are ready to start the practice.","Remember to type as QUICKLY and ACCURATELY as you can after the 'get ready' prompt.

Ask the experimenter any questions now. Please put on the headphones.

You will get one practice trial. Press 'enter/return' when you are ready to start the practice.",video&audio/Example_AOMI_total.png,1.8,0.7,None,None,None,None,None,frugal,oppose,6.5,7.5,video&audio/ghetto_TT_3X.mp4,video&audio/sentence3_TT_3X.mp4,ghetto,jargon,None,,,,,,,,,,,,,,,,,,,,,,,,,,,0,17,17,2,,,,,,,,,,,,,,,,,,,,,,,,,,,,,,,,,,,,,,,,,,,,,,,,None,,,None, ghetto,"['g', 'h', 'e', 't', 't', 'o', 'return']","[0.42513899999903515, 0.5052123999994365, 0.9693007999994734, 1.1854485999974713, 1.3531001999981527, 1.4570871999967494, 2.1374080999994476]",,,,,,,,,,,,,,,,,,,,,,,,,,21,001,E,2023_Feb_09_1520,student_TT_local,2021.1.4,48.5125094351209,
,"This is Section 2.

In this section, your task will be the same as before - that is, to type the word you see on the screen after the typing prompt. However, rather than just seeing the word before typing, you will also see a video of someone typing the same word you will need to type at various speeds. 

Press 'enter/return' to go to the next page.","This is Section 4. 

In this section, your task will be the same as before - that is, to type the word you see on the screen after the typing prompt. You will see a video again, like in Section 2, only this time, the video will show someone typing different words to what you must type at various speeds. 

Press 'enter/return' to go to the next page.",video&audio/Example_AOMI_layout.png,1.6,0.6,afford,19.5,20.5,video&audio/afford_touch_edited.mp4,video&audio/amount_touch_edited.mp4,matrix,hinder,6.5,7.5,video&audio/breach_TT_3X.mp4,video&audio/sentence1_TT_3X.mp4,breach,vanity,1 = AOMIspec,,,,,,,,,,,,,,,,,,,,,,,,,,,0,18,18,0,,,,,,,,,,,,,,,,,,,,,,,,,,,,,,,,,,,,,,,,,,,,,,,,None,,,None, breach,"['b', 'r', 'e', 'a', 'c', 'h', 'return']","[0.4532059000011941, 0.533203399998456, 0.661168099999486, 0.8291791000010562, 1.2852316999997129, 1.3811830999984522, 1.6215737000020454]",,,,,,,,,,,,,,,,,,,,,,,,,,21,001,E,2023_Feb_09_1520,student_TT_local,2021.1.4,48.5125094351209,
,None,None,None,None,None,None,None,None,None,None,virile,joiner,6.5,7.5,video&audio/apathy_TT_3X.mp4,video&audio/sentence6_TT_3X.mp4,apathy,revolt,None,,,,,,,,,,,,,,,,,,,,,,,,,,,0,19,19,5,,,,,,,,,,,,,,,,,,,,,,,,,,,,,,,,,,,,,,,,,,,,,,,,None,,,None, apathy,"['a', 'p', 't', 'h', 'y', 'return']","[0.5191569999988133, 0.6229801000008592, 1.06297160000031, 1.17498980000164, 1.383389200000238, 1.9753240999998525]",,,,,,,,,,,,,,,,,,,,,,,,,,21,001,E,2023_Feb_09_1520,student_TT_local,2021.1.4,48.5125094351209,
,None,None,None,None,None,None,None,None,None,None,ritual,clergy,19.5,20.5,video&audio/portal_touch_edited.mp4,video&audio/Sentence6_touch_edited.mp4,portal,murmur,None,,,,,,,,,,,,,,,,,,,,,,,,,,,0,20,20,17,,,,,,,,,,,,,,,,,,,,,,,,,,,,,,,,,,,,,,,,,,,,,,,,None,,,None, portal,"['p', 'o', 'r', 't', 'a', 'l', 'return']","[0.9071447999995144, 0.9629234999993059, 1.1872151999996277, 1.6749829000000318, 1.8194376999999804, 1.9788244000010309, 2.194894000000204]",,,,,,,,,,,,,,,,,,,,,,,,,,21,001,E,2023_Feb_09_1520,student_TT_local,2021.1.4,48.5125094351209,
,None,None,None,None,None,None,None,None,None,None,cortex,induce,19.5,20.5,video&audio/mussel_touch_edited.mp4,video&audio/Sentence4_touch_edited.mp4,mussel,satire,None,,,,,,,,,,,,,,,,,,,,,,,,,,,0,21,21,21,,,,,,,,,,,,,,,,,,,,,,,,,,,,,,,,,,,,,,,,,,,,,,,,None,,,None, mussel,"['m', 'u', 's', 's', 'e', 'l', 'return']","[0.6370768000015232, 0.7091394999988552, 0.9810763999994379, 1.2054224999992584, 1.4610935000018799, 1.653135000000475, 1.9018028999998933]",,,,,,,,,,,,,,,,,,,,,,,,,,21,001,E,2023_Feb_09_1520,student_TT_local,2021.1.4,48.5125094351209,
,None,None,None,None,None,None,None,None,None,None,covert,patent,6.5,7.5,video&audio/defame_TT_3X.mp4,video&audio/sentence6_TT_3X.mp4,defame,quarry,None,,,,,,,,,,,,,,,,,,,,,,,,,,,0,22,22,11,,,,,,,,,,,,,,,,,,,,,,,,,,,,,,,,,,,,,,,,,,,,,,,,None,,,None, defame,"['d', 'e', 'f', 'a', 'm', 'e', 'return']","[0.43389920000117854, 0.5215127999981632, 0.8257765999987896, 1.0655860000006214, 1.2016383000009228, 1.39376909999919, 1.8816917000003741]",,,,,,,,,,,,,,,,,,,,,,,,,,21,001,E,2023_Feb_09_1520,student_TT_local,2021.1.4,48.5125094351209,
,None,None,None,None,None,None,None,None,None,None,piston,caviar,19.5,20.5,video&audio/shrill_touch_edited.mp4,video&audio/Sentence3_touch_edited.mp4,shrill,brazen,None,,,,,,,,,,,,,,,,,,,,,,,,,,,0,23,23,20,,,,,,,,,,,,,,,,,,,,,,,,,,,,,,,,,,,,,,,,,,,,,,,,None,,,None, shrill,"['s', 'h', 'r', 'i', 'l', 'l', 'return']","[0.5123710000007122, 0.6324682999984361, 0.8725938999996288, 0.9924711999992724, 1.288740100000723, 1.4804354000007152, 1.7446256000002904]",,,,,,,,,,,,,,,,,,,,,,,,,,21,001,E,2023_Feb_09_1520,student_TT_local,2021.1.4,48.5125094351209,
,"While you watch the video, imagine yourself typing the word on the screen, like how you did in the imagery practice. While you watch the video and imagine this, rest your hands on your keyboard but DO NOT type until AFTER you see the typing prompt.

Press 'enter/return' to go to the next page.","While watching the video, imagine yourself typing the word on the screen, like how you did in the imagery practice. While you watch the video and imagine this, rest your hands on your keyboard but DO NOT type until AFTER you see the typing prompt.

Press 'enter/return' to go to the next page.",video&audio/Example_AOMI_imagine.png,1.6,1,butter,6.5,7.5,video&audio/butter_TT_3X.mp4,video&audio/amount_TT_3X.mp4,ascend,metric,6.5,7.5,video&audio/eatery_TT_3X.mp4,video&audio/sentence2_TT_3X.mp4,eatery,plight,2 = AOMIgen,,,,,,,,,,,,,,,,,,,,,,,,,,,0,24,24,1,,,,,,,,,,,,,,,,,,,,,,,,,,,,,,,,,,,,,,,,,,,,,,,,None,,,None, eatery,"['e', 'a', 't', 'e', 'r', 'y', 'return']","[0.6442097999970429, 0.7481641999984276, 0.9482157999991614, 1.252036499998212, 1.6680313999968348, 2.5881303999995, 2.708306199998333]",,,,,,,,,,,,,,,,,,,,,,,,,,21,001,E,2023_Feb_09_1520,student_TT_local,2021.1.4,48.5125094351209,
,None,None,None,None,None,None,None,None,None,None,devise,mangle,19.5,20.5,video&audio/warble_touch_edited.mp4,video&audio/Sentence1_touch_edited.mp4,warble,fodder,None,,,,,,,,,,,,,,,,,,,,,,,,,,,0,25,25,24,,,,,,,,,,,,,,,,,,,,,,,,,,,,,,,,,,,,,,,,,,,,,,,,None,,,None, warble,"['w', 'a', 'r', 'b', 'l', 'e', 'return']","[0.41738599999735015, 0.5613073999993503, 0.8815394999983255, 1.041436600000452, 1.273332599997957, 1.417560499998217, 1.7694152999974904]",,,,,,,,,,,,,,,,,,,,,,,,,,21,001,E,2023_Feb_09_1520,student_TT_local,2021.1.4,48.5125094351209,
,None,None,None,None,None,None,None,None,None,None,cervix,cobble,19.5,20.5,video&audio/export_touch_edited.mp4,video&audio/Sentence2_touch_edited.mp4,export,savant,None,,,,,,,,,,,,,,,,,,,,,,,,,,,0,26,26,19,,,,,,,,,,,,,,,,,,,,,,,,,,,,,,,,,,,,,,,,,,,,,,,,None,,,None, export,"['e', 'x', 'p', 'o', 'r', 't', 'return']","[0.3032497999993211, 0.447337300000072, 0.7032632999980706, 0.8076387000000977, 1.2233953999966616, 1.4152065999987826, 1.5753785999986576]",,,,,,,,,,,,,,,,,,,,,,,,,,21,001,E,2023_Feb_09_1520,student_TT_local,2021.1.4,48.5125094351209,
,None,None,None,None,None,None,None,None,None,None,subtle,fungal,19.5,20.5,video&audio/mucous_touch_edited.mp4,video&audio/Sentence5_touch_edited.mp4,mucous,musket,None,,,,,,,,,,,,,,,,,,,,,,,,,,,0,27,27,22,,,,,,,,,,,,,,,,,,,,,,,,,,,,,,,,,,,,,,,,,,,,,,,,None,,,None, mucous,"['m', 'u', 'c', 'o', 'u', 's', 'return']","[0.37491030000091996, 0.4308229999987816, 0.7670471999990696, 1.078970599999593, 1.1831480000000738, 1.8148206000005302, 2.2069856000016443]",,,,,,,,,,,,,,,,,,,,,,,,,,21,001,E,2023_Feb_09_1520,student_TT_local,2021.1.4,48.5125094351209,
,None,None,None,None,None,None,None,None,None,None,neural,septic,6.5,7.5,video&audio/innate_TT_3X.mp4,video&audio/sentence2_TT_3X.mp4,ordain,potent,None,,,,,,,,,,,,,,,,,,,,,,,,,,,0,28,28,13,,,,,,,,,,,,,,,,,,,,,,,,,,,,,,,,,,,,,,,,,,,,,,,,None,,,None, ordain,"['o', 'r', 'd', 'a', 'i', 'n', 'return']","[0.43622940000204835, 0.5158329000005324, 0.8357928000004904, 0.9397434000020439, 1.1478074000006018, 1.3005434000006062, 1.5961204000013822]",,,,,,,,,,,,,,,,,,,,,,,,,,21,001,E,2023_Feb_09_1520,student_TT_local,2021.1.4,48.5125094351209,
,None,None,None,None,None,None,None,None,None,None,falter,tandem,19.5,20.5,video&audio/origin_touch_edited.mp4,video&audio/Sentence4_touch_edited.mp4,origin,coerce,None,,,,,,,,,,,,,,,,,,,,,,,,,,,0,29,29,15,,,,,,,,,,,,,,,,,,,,,,,,,,,,,,,,,,,,,,,,,,,,,,,,None,,,None, origin,"['o', 'r', 'i', 'g', 'i', 'n', 'return']","[0.3608171999985643, 0.48854260000007343, 0.6324437000002945, 0.9364892000012333, 0.9923841999989236, 1.1605992000004335, 1.424766100000852]",,,,,,,,,,,,,,,,,,,,,,,,,,21,001,E,2023_Feb_09_1520,student_TT_local,2021.1.4,48.5125094351209,
,,,,,,,,,,,,,,,,,,,,typingRatingScale.png,"How would you rate your typing performance in the previous section?

Press a number on your keyboard according to the rating scale below to give your answer. Your first answer will be accepted.",,,,,,,,,,,,,,,,,,,,,,,,,,,,,0,0,0,0,,,,,,,,,,,,,,,,,,,,,,,,,,,,,,,,,,,,,,,,,,,,,,,,,,,,['3'],[11.343763700002455],,,,,,,,,,,,,,,,,,,,,,,21,001,E,2023_Feb_09_1520,student_TT_local,2021.1.4,48.5125094351209,
,,,,,,,,,,,,,,,,,,,,visualImageryScale.png,"While imagining yourself typing, how clear was your visual image?

Press a number on your keyboard according to the rating scale below to give your answer. Your first answer will be accepted.",,,,,,,,,,,,,,,,,,,,,,,,,,,,,0,1,1,1,,,,,,,,,,,,,,,,,,,,,,,,,,,,,,,,,,,,,,,,,,,,,,,,,,,,['2'],[136.6776800000007],,,,,,,,,,,,,,,,,,,,,,,21,001,E,2023_Feb_09_1520,student_TT_local,2021.1.4,48.5125094351209,
,,,,,,,,,,,,,,,,,,,,kinestheticImageryScale.png,"While imagining yourself typing, how intense were the sensations associated with the imagined movement?

Press a number on your keyboard according to the rating scale below to give your answer. Your first answer will be accepted.",,,,,,,,,,,,,,,,,,,,,,,,,,,,,0,2,2,2,,,,,,,,,,,,,,,,,,,,,,,,,,,,,,,,,,,,,,,,,,,,,,,,,,,,['2'],[80.51913799999966],,,,,,,,,,,,,,,,,,,,,,,21,001,E,2023_Feb_09_1520,student_TT_local,2021.1.4,48.5125094351209,
,"This is Section 2.

In this section, your task will be the same as before - that is, to type the word you see on the screen after the typing prompt. However, rather than just seeing the word before typing, you will also see a video of someone typing the same word you will need to type at various speeds. 

Press 'enter/return' to go to the next page.","This is Section 4. 

In this section, your task will be the same as before - that is, to type the word you see on the screen after the typing prompt. You will see a video again, like in Section 2, only this time, the video will show someone typing different words to what you must type at various speeds. 

Press 'enter/return' to go to the next page.",video&audio/Example_AOMI_layout.png,1.6,0.6,afford,19.5,20.5,video&audio/afford_touch_edited.mp4,video&audio/amount_touch_edited.mp4,matrix,hinder,6.5,7.5,video&audio/breach_TT_3X.mp4,video&audio/sentence1_TT_3X.mp4,breach,vanity,1 = AOMIspec,,,,,,,,,,,,,,,,,,,,,,,,,,,,,,,,,,,,,,,,,,,0,0,0,0,,,,,,,,,,,,,,,,,,,,,,,,,,,,,,,,,,,,,,,,,,3559.8497792999988,3566.366680700001,None, butter,"['b', 'u', 't', 't', 'e', 'r', 'return']","[0.43581579999954556, 0.46791099999973085, 0.7476166999986162, 0.9313923000008799, 1.1233686000014131, 1.2434738999982073, 1.4273819000009098]",3616.8426588,3623.360362399999,None, hinder,"['h', 'i', 'n', 'd', 'e', 'r', 'return']","[0.49044880000292324, 0.5381553000006534, 0.7781642000009015, 1.0183856000003289, 1.1780309000023408, 1.3304101000030641, 1.4420391000021482]",,,,,,,,,,,21,001,E,2023_Feb_09_1520,student_TT_local,2021.1.4,48.5125094351209,
,None,None,None,None,None,None,None,None,None,None,cervix,cobble,19.5,20.5,video&audio/export_touch_edited.mp4,video&audio/Sentence2_touch_edited.mp4,export,savant,None,,,,,,,,,,,,,,,,,,,,,,,,,,,,,,,,,,,,,,,,,,,0,1,1,19,,,,,,,,,,,,,,,,,,,,,,,,,,,,,,,,,,,,,,,,,,,,,,,,3625.8421925000002,3645.357579299998,None, cobble,"['c', 'o', 'b', 'b', 'l', 'e', 'return']","[0.44275329999800306, 0.5708266999972693, 0.8428063999999722, 1.0026292000002286, 1.1547931999994034, 1.3146114999981364, 1.4752745000005234]",,,,,,,,,,,21,001,E,2023_Feb_09_1520,student_TT_local,2021.1.4,48.5125094351209,
,None,None,None,None,None,None,None,None,None,None,confer,innate,6.5,7.5,video&audio/tamper_TT_3X.mp4,video&audio/sentence1_TT_3X.mp4,tamper,sonnet,None,,,,,,,,,,,,,,,,,,,,,,,,,,,,,,,,,,,,,,,,,,,0,2,2,12,,,,,,,,,,,,,,,,,,,,,,,,,,,,,,,,,,,,,,,,,,,,,,,,3647.860237099998,3654.377783600001,None, innate,"['i', 'n', 'n', 'a', 't', 'e', 'return']","[0.47801519999848097, 0.7743954999968992, 0.878448199997365, 1.0460707999991428, 1.1897081999995862, 1.389832099997875, 1.517827399999078]",,,,,,,,,,,21,001,E,2023_Feb_09_1520,student_TT_local,2021.1.4,48.5125094351209,
,None,None,None,None,None,None,None,None,None,None,subtle,fungal,19.5,20.5,video&audio/mucous_touch_edited.mp4,video&audio/Sentence5_touch_edited.mp4,mucous,musket,None,,,,,,,,,,,,,,,,,,,,,,,,,,,,,,,,,,,,,,,,,,,0,3,3,22,,,,,,,,,,,,,,,,,,,,,,,,,,,,,,,,,,,,,,,,,,,,,,,,3656.9426986,3676.458297000001,None, fungal,"['f', 'u', 'n', 'g', 'a', 'l', 'return']","[0.48280940000040573, 0.5872372999983781, 0.7948684000002686, 1.066890300000523, 1.186816599998565, 1.3548465999992914, 1.6027682999992976]",,,,,,,,,,,21,001,E,2023_Feb_09_1520,student_TT_local,2021.1.4,48.5125094351209,
,None,None,None,None,None,None,None,None,None,None,subdue,feudal,19.5,20.5,video&audio/matron_touch_edited.mp4,video&audio/Sentence3_touch_edited.mp4,matron,legion,None,,,,,,,,,,,,,,,,,,,,,,,,,,,,,,,,,,,,,,,,,,,0,4,4,26,,,,,,,,,,,,,,,,,,,,,,,,,,,,,,,,,,,,,,,,,,,,,,,,3679.106796799999,3698.6257568,None, feudal,"['f', 'e', 'u', 'd', 'a', 'l', 'return']","[0.45820850000018254, 0.5862825000003795, 1.2023253999977896, 1.4263124999997672, 1.6108940999984043, 1.7703838999987056, 2.0821832999972685]",,,,,,,,,,,21,001,E,2023_Feb_09_1520,student_TT_local,2021.1.4,48.5125094351209,
,"While you watch the video, imagine yourself typing the word on the screen, like how you did in the imagery practice. While you watch the video and imagine this, rest your hands on your keyboard but DO NOT type until AFTER you see the typing prompt.

Press 'enter/return' to go to the next page.","While watching the video, imagine yourself typing the word on the screen, like how you did in the imagery practice. While you watch the video and imagine this, rest your hands on your keyboard but DO NOT type until AFTER you see the typing prompt.

Press 'enter/return' to go to the next page.",video&audio/Example_AOMI_imagine.png,1.6,1,butter,6.5,7.5,video&audio/butter_TT_3X.mp4,video&audio/amount_TT_3X.mp4,ascend,metric,6.5,7.5,video&audio/eatery_TT_3X.mp4,video&audio/sentence2_TT_3X.mp4,eatery,plight,2 = AOMIgen,,,,,,,,,,,,,,,,,,,,,,,,,,,,,,,,,,,,,,,,,,,0,5,5,1,,,,,,,,,,,,,,,,,,,,,,,,,,,,,,,,,,,,,,,,,,,,,,,,3701.7500242999995,3708.2678449000014,None, metric,"['m', 'e', 't', 'r', 'i', 'x', 'backspace', 'c', 'return']","[0.47517840000000433, 0.6194233999995049, 0.8515191000005871, 1.0752735999994911, 1.1719033000008494, 1.3952329000021564, 1.8836556999995082, 2.0039018000024953, 2.108042600000772]",,,,,,,,,,,21,001,E,2023_Feb_09_1520,student_TT_local,2021.1.4,48.5125094351209,
,None,None,None,None,None,None,None,None,None,None,belfry,girdle,19.5,20.5,video&audio/linear_touch_edited.mp4,video&audio/Sentence6_touch_edited.mp4,linear,impose,None,,,,,,,,,,,,,,,,,,,,,,,,,,,,,,,,,,,,,,,,,,,0,6,6,23,,,,,,,,,,,,,,,,,,,,,,,,,,,,,,,,,,,,,,,,,,,,,,,,3711.4154753000003,3730.9312489000004,None, girdle,"['g', 'i', 'r', 'd', 'l', 'e', 'return']","[0.3495656999984931, 0.501207199999044, 1.1092220999998972, 1.381947099998797, 1.501180100000056, 1.6453521999974328, 1.7731525999988662]",,,,,,,,,,,21,001,E,2023_Feb_09_1520,student_TT_local,2021.1.4,48.5125094351209,
,None,None,None,None,None,None,None,None,None,None,devise,mangle,19.5,20.5,video&audio/warble_touch_edited.mp4,video&audio/Sentence1_touch_edited.mp4,warble,fodder,None,,,,,,,,,,,,,,,,,,,,,,,,,,,,,,,,,,,,,,,,,,,0,7,7,24,,,,,,,,,,,,,,,,,,,,,,,,,,,,,,,,,,,,,,,,,,,,,,,,3733.7462479999995,3753.2621252999998,None, mangle,"['m', 'a', 'n', 'g', 'l', 'e', 'return']","[0.4024282000027597, 0.5463985000023968, 0.7384454999992158, 0.9705027000018163, 1.3063991000017268, 1.4104589000016858, 1.5387235000016517]",,,,,,,,,,,21,001,E,2023_Feb_09_1520,student_TT_local,2021.1.4,48.5125094351209,
,None,None,None,None,None,None,None,None,None,None,falter,tandem,19.5,20.5,video&audio/origin_touch_edited.mp4,video&audio/Sentence4_touch_edited.mp4,origin,coerce,None,,,,,,,,,,,,,,,,,,,,,,,,,,,,,,,,,,,,,,,,,,,0,8,8,15,,,,,,,,,,,,,,,,,,,,,,,,,,,,,,,,,,,,,,,,,,,,,,,,3755.8270833999995,3775.343040699998,None, tandem,"['t', 'a', 'n', 'd', 'e', 'm', 'return']","[0.4432483999989927, 0.6192790999994031, 1.411403699999937, 1.6676093999994919, 1.8272832000002381, 2.0278948999985005, 2.235649400001421]",,,,,,,,,,,21,001,E,2023_Feb_09_1520,student_TT_local,2021.1.4,48.5125094351209,
,None,None,None,None,None,None,None,None,None,None,debtor,output,19.5,20.5,video&audio/uphold_touch_edited.mp4,video&audio/Sentence1_touch_edited.mp4,uphold,pursue,None,,,,,,,,,,,,,,,,,,,,,,,,,,,,,,,,,,,,,,,,,,,0,9,9,18,,,,,,,,,,,,,,,,,,,,,,,,,,,,,,,,,,,,,,,,,,,,,,,,3778.616169500001,3798.1318281999993,None, output,"['o', 'u', 't', 'p', 'u', 't', 'return']","[0.38792860000103246, 0.4682858000014676, 0.6280733999992663, 0.8679104000002553, 1.0838140999985626, 1.3318519999993441, 1.4759521000014502]",,,,,,,,,,,21,001,E,2023_Feb_09_1520,student_TT_local,2021.1.4,48.5125094351209,
,None,None,None,None,None,None,None,None,None,None,picket,parish,19.5,20.5,video&audio/gullet_touch_edited.mp4,video&audio/Sentence5_touch_edited.mp4,gullet,manure,None,,,,,,,,,,,,,,,,,,,,,,,,,,,,,,,,,,,,,,,,,,,0,10,10,28,,,,,,,,,,,,,,,,,,,,,,,,,,,,,,,,,,,,,,,,,,,,,,,,3823.7994734999993,3843.314486299998,None, parish,"['p', 'a', 'r', 'i', 's', 'h', 'return']","[0.4279203000005509, 0.556390999998257, 0.8366963000007672, 1.0120371999983035, 1.1959102000000712, 1.3318876999983331, 1.5719113999984984]",,,,,,,,,,,21,001,E,2023_Feb_09_1520,student_TT_local,2021.1.4,48.5125094351209,
,None,None,None,None,None,None,None,None,None,None,cortex,induce,19.5,20.5,video&audio/mussel_touch_edited.mp4,video&audio/Sentence4_touch_edited.mp4,mussel,satire,None,,,,,,,,,,,,,,,,,,,,,,,,,,,,,,,,,,,,,,,,,,,0,11,11,21,,,,,,,,,,,,,,,,,,,,,,,,,,,,,,,,,,,,,,,,,,,,,,,,3845.9212276,3865.4368644999995,None, induce,"['i', 'n', 'd', 'u', 'c', 'e', 'return']","[0.33257319999756874, 0.48439850000067963, 0.6528302000006079, 0.804458099999465, 1.0763430999977572, 1.1727623999977368, 1.3403896999989229]",,,,,,,,,,,21,001,E,2023_Feb_09_1520,student_TT_local,2021.1.4,48.5125094351209,
,None,None,None,None,None,None,None,None,None,None,piston,caviar,19.5,20.5,video&audio/shrill_touch_edited.mp4,video&audio/Sentence3_touch_edited.mp4,shrill,brazen,None,,,,,,,,,,,,,,,,,,,,,,,,,,,,,,,,,,,,,,,,,,,0,12,12,20,,,,,,,,,,,,,,,,,,,,,,,,,,,,,,,,,,,,,,,,,,,,,,,,3867.8142573000005,3887.3326825000004,None, caviar,"['c', 'a', 'v', 'i', 'a', 'r', 'return']","[0.3266667999996571, 0.44701119999808725, 0.6469107999982953, 0.9507524999971793, 1.1109483000000182, 1.3028460999994422, 1.574646599998232]",,,,,,,,,,,21,001,E,2023_Feb_09_1520,student_TT_local,2021.1.4,48.5125094351209,
,None,None,None,None,None,None,None,None,None,None,neural,septic,6.5,7.5,video&audio/innate_TT_3X.mp4,video&audio/sentence2_TT_3X.mp4,ordain,potent,None,,,,,,,,,,,,,,,,,,,,,,,,,,,,,,,,,,,,,,,,,,,0,13,13,13,,,,,,,,,,,,,,,,,,,,,,,,,,,,,,,,,,,,,,,,,,,,,,,,3889.9367862,3896.4537697999986,None, septic,"['s', 'e', 'p', 't', 'i', 'c', 'return']","[0.4680439999974624, 0.7397146999974211, 0.8996613999988767, 1.4276984999996785, 1.7956966999990982, 1.9716872999997577, 2.1320357999975386]",,,,,,,,,,,21,001,E,2023_Feb_09_1520,student_TT_local,2021.1.4,48.5125094351209,
,None,None,None,None,None,None,None,None,None,None,obsess,zephyr,6.5,7.5,video&audio/fusion_TT_3X.mp4,video&audio/sentence5_TT_3X.mp4,fusion,critic,None,,,,,,,,,,,,,,,,,,,,,,,,,,,,,,,,,,,,,,,,,,,0,14,14,10,,,,,,,,,,,,,,,,,,,,,,,,,,,,,,,,,,,,,,,,,,,,,,,,3899.623634200001,3906.1405736999986,None, zephyr,"['z', 'e', 'p', 'h', 'y', 'r', 'return']","[0.27654660000189324, 0.4363498000020627, 0.6204557999990357, 0.9245549000006577, 1.7721338000010292, 1.9161597000020265, 2.084165000000212]",,,,,,,,,,,21,001,E,2023_Feb_09_1520,student_TT_local,2021.1.4,48.5125094351209,
,None,None,None,None,None,None,None,None,None,None,virile,joiner,6.5,7.5,video&audio/apathy_TT_3X.mp4,video&audio/sentence6_TT_3X.mp4,apathy,revolt,None,,,,,,,,,,,,,,,,,,,,,,,,,,,,,,,,,,,,,,,,,,,0,15,15,5,,,,,,,,,,,,,,,,,,,,,,,,,,,,,,,,,,,,,,,,,,,,,,,,3909.269034500001,3915.7850335000003,None, joiner,"['j', 'o', 'i', 'n', 'e', 'r', 'return']","[0.37495360000320943, 0.4788008000032278, 0.6711063000002468, 0.8952632000000449, 1.031040000001667, 1.24720410000009, 1.3513760000023467]",,,,,,,,,,,21,001,E,2023_Feb_09_1520,student_TT_local,2021.1.4,48.5125094351209,
,None,None,None,None,None,None,None,None,None,None,malady,shrewd,6.5,7.5,video&audio/revoke_TT_3X.mp4,video&audio/sentence1_TT_3X.mp4,revoke,mirage,None,,,,,,,,,,,,,,,,,,,,,,,,,,,,,,,,,,,,,,,,,,,0,16,16,6,,,,,,,,,,,,,,,,,,,,,,,,,,,,,,,,,,,,,,,,,,,,,,,,3918.1630646999984,3924.680128699998,None, shrewd,"['s', 'h', 'r', 'e', 'w', 'd', 'return']","[0.5758779999996477, 0.6878883999997925, 0.9839965999999549, 1.120340599998599, 1.480037599998468, 1.768037199999526, 1.9845120999998471]",,,,,,,,,,,21,001,E,2023_Feb_09_1520,student_TT_local,2021.1.4,48.5125094351209,
,None,None,None,None,None,None,None,None,None,None,jackal,hamlet,6.5,7.5,video&audio/shroud_TT_3X.mp4,video&audio/sentence4_TT_3X.mp4,shroud,sherry,None,,,,,,,,,,,,,,,,,,,,,,,,,,,,,,,,,,,,,,,,,,,0,17,17,9,,,,,,,,,,,,,,,,,,,,,,,,,,,,,,,,,,,,,,,,,,,,,,,,3927.7034835000013,3934.2211484,None, hamlet,"['h', 'a', 'm', 'l', 'e', 't', 'return']","[0.29936810000072, 0.3794663999979093, 0.6195131999993464, 0.8350590000009106, 0.9472549999991315, 1.2357211999988067, 1.3398099999976694]",,,,,,,,,,,21,001,E,2023_Feb_09_1520,student_TT_local,2021.1.4,48.5125094351209,
,None,None,None,None,None,None,None,None,None,None,solemn,befall,6.5,7.5,video&audio/ration_TT_3X.mp4,video&audio/sentence3_TT_3X.mp4,ration,parole,None,,,,,,,,,,,,,,,,,,,,,,,,,,,,,,,,,,,,,,,,,,,0,18,18,8,,,,,,,,,,,,,,,,,,,,,,,,,,,,,,,,,,,,,,,,,,,,,,,,3936.5979365999992,3943.1164183,None, befall,"['b', 'e', 'f', 'a', 'l', 'l', 'return']","[0.43598410000049626, 0.5318158999980369, 0.8198088999997708, 0.9320695999995223, 1.187717500000872, 1.3397029999978258, 1.5477678999995987]",,,,,,,,,,,21,001,E,2023_Feb_09_1520,student_TT_local,2021.1.4,48.5125094351209,
,"Remember to type as QUICKLY and ACCURATELY as possible after the 'get ready' prompt.

Ask the experimenter any questions now. Please put on the headphones.

You will get one practice trial. Press 'enter/return' when you are ready to start the practice.","Remember to type as QUICKLY and ACCURATELY as you can after the 'get ready' prompt.

Ask the experimenter any questions now. Please put on the headphones.

You will get one practice trial. Press 'enter/return' when you are ready to start the practice.",video&audio/Example_AOMI_total.png,1.8,0.7,None,None,None,None,None,frugal,oppose,6.5,7.5,video&audio/ghetto_TT_3X.mp4,video&audio/sentence3_TT_3X.mp4,ghetto,jargon,None,,,,,,,,,,,,,,,,,,,,,,,,,,,,,,,,,,,,,,,,,,,0,19,19,2,,,,,,,,,,,,,,,,,,,,,,,,,,,,,,,,,,,,,,,,,,,,,,,,3945.7013434,3952.218375299999,None, oppose,"['o', 'p', 'p', 'o', 's', 'e', 'return']","[0.2700081000002683, 0.43777010000121663, 0.6219887000006565, 0.805872900000395, 1.0460644000013417, 1.182145099999616, 1.397764900000766]",,,,,,,,,,,21,001,E,2023_Feb_09_1520,student_TT_local,2021.1.4,48.5125094351209,
,None,None,None,None,None,None,None,None,None,None,botany,trench,19.5,20.5,video&audio/ethnic_touch_edited.mp4,video&audio/Sentence4_touch_edited.mp4,ethnic,goblet,None,,,,,,,,,,,,,,,,,,,,,,,,,,,,,,,,,,,,,,,,,,,0,20,20,27,,,,,,,,,,,,,,,,,,,,,,,,,,,,,,,,,,,,,,,,,,,,,,,,3959.866260999999,3979.3824664999993,None, trench,"['t', 'r', 'e', 'n', 'c', 'h', 'return']","[0.4668342999975721, 0.730578599999717, 0.8508641999978863, 1.1629943999978423, 1.3627479999995558, 1.4506374999982654, 1.754613299999619]",,,,,,,,,,,21,001,E,2023_Feb_09_1520,student_TT_local,2021.1.4,48.5125094351209,
,None,None,None,None,None,None,None,None,None,None,parcel,primal,6.5,7.5,video&audio/entail_TT_3X.mp4,video&audio/sentence5_TT_3X.mp4,entail,novice,None,,,,,,,,,,,,,,,,,,,,,,,,,,,,,,,,,,,,,,,,,,,0,21,21,4,,,,,,,,,,,,,,,,,,,,,,,,,,,,,,,,,,,,,,,,,,,,,,,,3982.176227699998,3988.6939015999997,None, primal,"['p', 'r', 'i', 'm', 'a', 'semicolon', 'backspace', 'l', 'return']","[0.3231175000000803, 0.5710786999989068, 0.7468406000007235, 0.970828999998048, 1.091292799999792, 1.2591795999978785, 1.7148737999996229, 1.987220899998647, 2.1070322999985365]",,,,,,,,,,,21,001,E,2023_Feb_09_1520,student_TT_local,2021.1.4,48.5125094351209,
,None,None,None,None,None,None,None,None,None,None,kipper,meddle,19.5,20.5,video&audio/divert_touch_edited.mp4,video&audio/Sentence2_touch_edited.mp4,divert,upkeep,None,,,,,,,,,,,,,,,,,,,,,,,,,,,,,,,,,,,,,,,,,,,0,22,22,25,,,,,,,,,,,,,,,,,,,,,,,,,,,,,,,,,,,,,,,,,,,,,,,,3991.8423872999992,4011.3574305,None, meddle,"['m', 'd', 'backspace', 'e', 'd', 'd', 'l', 'e', 'return']","[0.3068803999994998, 0.40244800000073155, 1.2187952999993286, 1.3785710000011022, 1.554702699999325, 1.7467027000020607, 1.9385318999993615, 2.170606300001964, 2.6425311000020884]",,,,,,,,,,,21,001,E,2023_Feb_09_1520,student_TT_local,2021.1.4,48.5125094351209,
,None,None,None,None,None,None,None,None,None,None,hippie,hearth,6.5,7.5,video&audio/herbal_TT_3X.mp4,video&audio/sentence3_TT_3X.mp4,herbal,deduct,None,,,,,,,,,,,,,,,,,,,,,,,,,,,,,,,,,,,,,,,,,,,0,23,23,14,,,,,,,,,,,,,,,,,,,,,,,,,,,,,,,,,,,,,,,,,,,,,,,,4015.048885,4021.5647432000005,None, hearth,"['h', 'e', 'a', 'r', 't', 'h', 'return']","[0.6522077000008721, 0.7637914000006276, 0.907739300000685, 1.1477344000013545, 1.4118764999984705, 1.491791500000545, 1.8601443000006839]",,,,,,,,,,,21,001,E,2023_Feb_09_1520,student_TT_local,2021.1.4,48.5125094351209,
,None,None,None,None,None,None,None,None,None,None,plasma,jailer,19.5,20.5,video&audio/nettle_touch_edited.mp4,video&audio/Sentence5_touch_edited.mp4,nettle,convoy,None,,,,,,,,,,,,,,,,,,,,,,,,,,,,,,,,,,,,,,,,,,,0,24,24,16,,,,,,,,,,,,,,,,,,,,,,,,,,,,,,,,,,,,,,,,,,,,,,,,4024.4635444999985,4043.9785991999997,None, jailer,"['j', 'a', 'i', 'l', 'e', 'r', 'return']","[0.39662759999919217, 0.5327765000001818, 0.7006169999986014, 0.8765970999993442, 1.020565599999827, 1.2045467999996617, 1.2767026000001351]",,,,,,,,,,,21,001,E,2023_Feb_09_1520,student_TT_local,2021.1.4,48.5125094351209,
,None,None,None,None,None,None,None,None,None,None,tariff,delude,6.5,7.5,video&audio/galley_TT_3X.mp4,video&audio/sentence2_TT_3X.mp4,galley,strife,None,,,,,,,,,,,,,,,,,,,,,,,,,,,,,,,,,,,,,,,,,,,0,25,25,7,,,,,,,,,,,,,,,,,,,,,,,,,,,,,,,,,,,,,,,,,,,,,,,,4046.2939005000007,4052.8127494,None, delude,"['d', 'e', 'l', 'u', 'd', 's', 'e', 'return']","[0.42042100000253413, 0.5726032000020496, 0.8289258000004338, 1.100975200002722, 1.3004451000015251, 1.3090918000016245, 1.5244592000017292, 1.8845895000013115]",,,,,,,,,,,21,001,E,2023_Feb_09_1520,student_TT_local,2021.1.4,48.5125094351209,
,None,None,None,None,None,None,None,None,None,None,pulpit,oblige,6.5,7.5,video&audio/mystic_TT_3X.mp4,video&audio/sentence4_TT_3X.mp4,mystic,infirm,None,,,,,,,,,,,,,,,,,,,,,,,,,,,,,,,,,,,,,,,,,,,0,26,26,3,,,,,,,,,,,,,,,,,,,,,,,,,,,,,,,,,,,,,,,,,,,,,,,,4055.7313269000006,4062.2328578999986,None, oblige,"['o', 'b', 'l', 'i', 'g', 'e', 'return']","[0.2880390999998781, 0.40052339999965625, 0.8321627999976045, 0.9438042999972822, 1.1918187999981456, 1.3280635999981314, 1.5438261999988754]",,,,,,,,,,,21,001,E,2023_Feb_09_1520,student_TT_local,2021.1.4,48.5125094351209,
,None,None,None,None,None,None,None,None,None,None,covert,patent,6.5,7.5,video&audio/defame_TT_3X.mp4,video&audio/sentence6_TT_3X.mp4,defame,quarry,None,,,,,,,,,,,,,,,,,,,,,,,,,,,,,,,,,,,,,,,,,,,0,27,27,11,,,,,,,,,,,,,,,,,,,,,,,,,,,,,,,,,,,,,,,,,,,,,,,,4064.833823500001,4071.350848899998,None, patent,"['p', 'a', 't', 'e', 'n', 't', 'return']","[0.28976309999779915, 0.40961869999955525, 0.6980234999973618, 0.8578858000000764, 1.0417691000002378, 1.2419164999992063, 1.4497346999996807]",,,,,,,,,,,21,001,E,2023_Feb_09_1520,student_TT_local,2021.1.4,48.5125094351209,
,None,None,None,None,None,None,None,None,None,None,forage,campus,19.5,20.5,video&audio/allure_touch_edited.mp4,video&audio/Sentence6_touch_edited.mp4,allure,binder,None,,,,,,,,,,,,,,,,,,,,,,,,,,,,,,,,,,,,,,,,,,,0,28,28,29,,,,,,,,,,,,,,,,,,,,,,,,,,,,,,,,,,,,,,,,,,,,,,,,4073.833954599999,4093.347806900001,None, campus,"['c', 'a', 'm', 'p', 'u', 's', 'return']","[0.34780529999989085, 0.4518046000011964, 0.7558607000028132, 1.0837767000011809, 1.3717494000011357, 1.5238229999995383, 1.6599378000028082]",,,,,,,,,,,21,001,E,2023_Feb_09_1520,student_TT_local,2021.1.4,48.5125094351209,
,None,None,None,None,None,None,None,None,None,None,ritual,clergy,19.5,20.5,video&audio/portal_touch_edited.mp4,video&audio/Sentence6_touch_edited.mp4,portal,murmur,None,,,,,,,,,,,,,,,,,,,,,,,,,,,,,,,,,,,,,,,,,,,0,29,29,17,,,,,,,,,,,,,,,,,,,,,,,,,,,,,,,,,,,,,,,,,,,,,,,,4096.038150799999,4115.554093999999,None, clergy,"['c', 'l', 'e', 'r', 'g', 'y', 'return']","[0.6068252000004577, 0.7506744999991497, 1.0387526000013168, 1.5027574000014283, 1.8388851999989129, 1.9588280999996641, 2.1908045999989554]",,,,,,,,,,,21,001,E,2023_Feb_09_1520,student_TT_local,2021.1.4,48.5125094351209,
,,,,,,,,,,,,,,,,,,,,typingRatingScale.png,"How would you rate your typing performance in the previous section?

Press a number on your keyboard according to the rating scale below to give your answer. Your first answer will be accepted.",,,,,,,,,,,,,,,,,,,,,,,,,,,,,,,,,,,,,,,,,,,,,0,0,0,0,,,,,,,,,,,,,,,,,,,,,,,,,,,,,,,,,,,,,,,,,,,,,,,,,,['2'],[4.849841999999626],,,,,,,,,21,001,E,2023_Feb_09_1520,student_TT_local,2021.1.4,48.5125094351209,
,,,,,,,,,,,,,,,,,,,,imageryCheckScale.png,"In the previous section did you imagine yourself typing?

Press a number on your keyboard according to the rating scale below to give your answer. Your first answer will be accepted.",,,,,,,,,,,,,,,,,,,,,,,,,,,,,,,,,,,,,,,,,,,,,0,1,1,1,,,,,,,,,,,,,,,,,,,,,,,,,,,,,,,,,,,,,,,,,,,,,,,,,,['1'],[6.2380588999985775],,,,,,,,,21,001,E,2023_Feb_09_1520,student_TT_local,2021.1.4,48.5125094351209,
,None,None,None,None,None,None,None,None,None,None,piston,caviar,19.5,20.5,video&audio/shrill_touch_edited.mp4,video&audio/Sentence3_touch_edited.mp4,shrill,brazen,None,,,,,,,,,,,,,,,,,,,,,,,,,,,,,,,,,,,,,,,,,,,,,,,,,,,,,,,,,,,0,0,0,20,,,,,,,,,,,,,,,,None,"['b', 'u', 't', 't', 'e', 'r', 'return']","[0.5768282999997609, 0.6567136999983632, 0.9768245999985083, 1.1209802999983367, 1.744756199997937, 1.9047486999988905, 2.0408433999982662]",,,,,,,,,,,,,,,,,,,,,,None,None, brazen,"['b', 'r', 'a', 'z', 'e', 'n', 'b', 'backspace', 'return']","[0.3360575000006065, 0.4483758999995189, 0.6561165999992227, 1.0080478000018047, 1.256395700002031, 1.472066400001495, 1.480292799999006, 2.0320781000009447, 2.2403880000019853]",,,,21,001,E,2023_Feb_09_1520,student_TT_local,2021.1.4,48.5125094351209,
,None,None,None,None,None,None,None,None,None,None,parcel,primal,6.5,7.5,video&audio/entail_TT_3X.mp4,video&audio/sentence5_TT_3X.mp4,entail,novice,None,,,,,,,,,,,,,,,,,,,,,,,,,,,,,,,,,,,,,,,,,,,,,,,,,,,,,,,,,,,0,1,1,4,,,,,,,,,,,,,,,,None,,,,,,,,,,,,,,,,,,,,,,,,,None, novice,"['n', 'o', 'v', 'i', 'c', 'e', 'return']","[0.4441158000008727, 0.5161766999990505, 1.08447619999788, 1.1403944000012416, 1.4682618000006187, 1.612860199998977, 1.7884424000003492]",,,,21,001,E,2023_Feb_09_1520,student_TT_local,2021.1.4,48.5125094351209,
,None,None,None,None,None,None,None,None,None,None,pulpit,oblige,6.5,7.5,video&audio/mystic_TT_3X.mp4,video&audio/sentence4_TT_3X.mp4,mystic,infirm,None,,,,,,,,,,,,,,,,,,,,,,,,,,,,,,,,,,,,,,,,,,,,,,,,,,,,,,,,,,,0,2,2,3,,,,,,,,,,,,,,,,None,,,,,,,,,,,,,,,,,,,,,,,,,None, infirm,"['i', 'n', 'f', 'i', 'r', 'm', 'return']","[0.4003286000006483, 0.5122564000012062, 0.7685949000006076, 0.8728244000012637, 1.1282344999999623, 1.3044580000023416, 1.7122907000011764]",,,,21,001,E,2023_Feb_09_1520,student_TT_local,2021.1.4,48.5125094351209,
,None,None,None,None,None,None,None,None,None,None,jackal,hamlet,6.5,7.5,video&audio/shroud_TT_3X.mp4,video&audio/sentence4_TT_3X.mp4,shroud,sherry,None,,,,,,,,,,,,,,,,,,,,,,,,,,,,,,,,,,,,,,,,,,,,,,,,,,,,,,,,,,,0,3,3,9,,,,,,,,,,,,,,,,None,,,,,,,,,,,,,,,,,,,,,,,,,['return'], sherry,"['s', 'h', 'e', 'r', 'r', 'y', 'return']","[0.3481069000008574, 0.4440575999979046, 0.6683797000005143, 0.8841026999980386, 1.0440412999996624, 1.1322032999996736, 1.3801123999983247]",[0.16266230000110227],,,21,001,E,2023_Feb_09_1520,student_TT_local,2021.1.4,48.5125094351209,
,None,None,None,None,None,None,None,None,None,None,devise,mangle,19.5,20.5,video&audio/warble_touch_edited.mp4,video&audio/Sentence1_touch_edited.mp4,warble,fodder,None,,,,,,,,,,,,,,,,,,,,,,,,,,,,,,,,,,,,,,,,,,,,,,,,,,,,,,,,,,,0,4,4,24,,,,,,,,,,,,,,,,None,,,,,,,,,,,,,,,,,,,,,,,,,None, fodder,"['f', 'o', 'd', 'd', 'e', 'r', 'return']","[0.4282978000010189, 0.5084827999999106, 0.7244159000001673, 0.9322061999992002, 1.0604856999998447, 1.212265900001512, 1.3643808999986504]",,,,21,001,E,2023_Feb_09_1520,student_TT_local,2021.1.4,48.5125094351209,
,"Remember to type as QUICKLY and ACCURATELY as possible after the 'get ready' prompt.

Ask the experimenter any questions now. Please put on the headphones.

You will get one practice trial. Press 'enter/return' when you are ready to start the practice.","Remember to type as QUICKLY and ACCURATELY as you can after the 'get ready' prompt.

Ask the experimenter any questions now. Please put on the headphones.

You will get one practice trial. Press 'enter/return' when you are ready to start the practice.",video&audio/Example_AOMI_total.png,1.8,0.7,None,None,None,None,None,frugal,oppose,6.5,7.5,video&audio/ghetto_TT_3X.mp4,video&audio/sentence3_TT_3X.mp4,ghetto,jargon,None,,,,,,,,,,,,,,,,,,,,,,,,,,,,,,,,,,,,,,,,,,,,,,,,,,,,,,,,,,,0,5,5,2,,,,,,,,,,,,,,,,None,,,,,,,,,,,,,,,,,,,,,,,,,None, jargon,"['j', 'a', 'r', 'g', 'o', 'n', 'return']","[0.3426461000017298, 0.4222605000031763, 0.654469600001903, 0.902393000000302, 1.0144582000029914, 1.190610800000286, 1.398337900001934]",,,,21,001,E,2023_Feb_09_1520,student_TT_local,2021.1.4,48.5125094351209,
,None,None,None,None,None,None,None,None,None,None,malady,shrewd,6.5,7.5,video&audio/revoke_TT_3X.mp4,video&audio/sentence1_TT_3X.mp4,revoke,mirage,None,,,,,,,,,,,,,,,,,,,,,,,,,,,,,,,,,,,,,,,,,,,,,,,,,,,,,,,,,,,0,6,6,6,,,,,,,,,,,,,,,,None,,,,,,,,,,,,,,,,,,,,,,,,,None, mirage,"['m', 'i', 'r', 'a', 'g', 'e', 'return']","[0.34573870000167517, 0.40960810000251513, 0.7855349000019487, 0.9294852999992145, 1.169497800001409, 1.3297944000005373, 1.4414213000018208]",,,,21,001,E,2023_Feb_09_1520,student_TT_local,2021.1.4,48.5125094351209,
,None,None,None,None,None,None,None,None,None,None,tariff,delude,6.5,7.5,video&audio/galley_TT_3X.mp4,video&audio/sentence2_TT_3X.mp4,galley,strife,None,,,,,,,,,,,,,,,,,,,,,,,,,,,,,,,,,,,,,,,,,,,,,,,,,,,,,,,,,,,0,7,7,7,,,,,,,,,,,,,,,,None,,,,,,,,,,,,,,,,,,,,,,,,,None, strife,"['s', 't', 'r', 'i', 'f', 'e', 'return']","[0.39767550000033225, 0.5016938999979175, 0.7655852999996569, 0.917657699999836, 1.1016158999991603, 1.2535846999999194, 1.4055424999969546]",,,,21,001,E,2023_Feb_09_1520,student_TT_local,2021.1.4,48.5125094351209,
,None,None,None,None,None,None,None,None,None,None,picket,parish,19.5,20.5,video&audio/gullet_touch_edited.mp4,video&audio/Sentence5_touch_edited.mp4,gullet,manure,None,,,,,,,,,,,,,,,,,,,,,,,,,,,,,,,,,,,,,,,,,,,,,,,,,,,,,,,,,,,0,8,8,28,,,,,,,,,,,,,,,,None,,,,,,,,,,,,,,,,,,,,,,,,,None, manure,"['m', 'n', 'backspace', 'a', 'n', 'u', 'r', 'e', 'return']","[0.39452569999775733, 0.5063018000000739, 1.010204899997916, 1.2422115999979724, 1.4029778999974951, 1.6184102000006533, 1.7703757999988738, 1.882277199998498, 2.0263113000000885]",,,,21,001,E,2023_Feb_09_1520,student_TT_local,2021.1.4,48.5125094351209,
,None,None,None,None,None,None,None,None,None,None,plasma,jailer,19.5,20.5,video&audio/nettle_touch_edited.mp4,video&audio/Sentence5_touch_edited.mp4,nettle,convoy,None,,,,,,,,,,,,,,,,,,,,,,,,,,,,,,,,,,,,,,,,,,,,,,,,,,,,,,,,,,,0,9,9,16,,,,,,,,,,,,,,,,None,,,,,,,,,,,,,,,,,,,,,,,,,None, convoy,"['c', 'o', 'n', 'v', 'o', 'y', 'return']","[0.4207120999999461, 0.5327582999998413, 0.7967969000019366, 1.2048872000013944, 1.3410794000010355, 1.6208831000003556, 1.789423700000043]",,,,21,001,E,2023_Feb_09_1520,student_TT_local,2021.1.4,48.5125094351209,
,None,None,None,None,None,None,None,None,None,None,subdue,feudal,19.5,20.5,video&audio/matron_touch_edited.mp4,video&audio/Sentence3_touch_edited.mp4,matron,legion,None,,,,,,,,,,,,,,,,,,,,,,,,,,,,,,,,,,,,,,,,,,,,,,,,,,,,,,,,,,,0,10,10,26,,,,,,,,,,,,,,,,None,,,,,,,,,,,,,,,,,,,,,,,,,None, legion,"['l', 'e', 'g', 'i', 'o', 'n', 'return']","[0.3757879000004323, 0.47977520000131335, 0.8320283000030031, 0.9277655000005325, 1.0080914000027406, 1.1599125000029744, 1.375809000001027]",,,,21,001,E,2023_Feb_09_1520,student_TT_local,2021.1.4,48.5125094351209,
,"This is Section 2.

In this section, your task will be the same as before - that is, to type the word you see on the screen after the typing prompt. However, rather than just seeing the word before typing, you will also see a video of someone typing the same word you will need to type at various speeds. 

Press 'enter/return' to go to the next page.","This is Section 4. 

In this section, your task will be the same as before - that is, to type the word you see on the screen after the typing prompt. You will see a video again, like in Section 2, only this time, the video will show someone typing different words to what you must type at various speeds. 

Press 'enter/return' to go to the next page.",video&audio/Example_AOMI_layout.png,1.6,0.6,afford,19.5,20.5,video&audio/afford_touch_edited.mp4,video&audio/amount_touch_edited.mp4,matrix,hinder,6.5,7.5,video&audio/breach_TT_3X.mp4,video&audio/sentence1_TT_3X.mp4,breach,vanity,1 = AOMIspec,,,,,,,,,,,,,,,,,,,,,,,,,,,,,,,,,,,,,,,,,,,,,,,,,,,,,,,,,,,0,11,11,0,,,,,,,,,,,,,,,,None,,,,,,,,,,,,,,,,,,,,,,,,,None, vanity,"['v', 'a', 'n', 'i', 't', 'y', 'return']","[0.44610870000178693, 0.5578340000029129, 0.7979177000015625, 0.9018700000015087, 1.0860106000000087, 1.285908700003347, 1.382496700000047]",,,,21,001,E,2023_Feb_09_1520,student_TT_local,2021.1.4,48.5125094351209,
,None,None,None,None,None,None,None,None,None,None,kipper,meddle,19.5,20.5,video&audio/divert_touch_edited.mp4,video&audio/Sentence2_touch_edited.mp4,divert,upkeep,None,,,,,,,,,,,,,,,,,,,,,,,,,,,,,,,,,,,,,,,,,,,,,,,,,,,,,,,,,,,0,12,12,25,,,,,,,,,,,,,,,,None,,,,,,,,,,,,,,,,,,,,,,,,,None, upkeep,"['u', 'p', 'k', 'e', 'e', 'p', 'return']","[0.34178629999951227, 0.4218141999990621, 0.9101797000002989, 1.165698999997403, 1.3337873999989824, 1.4859474999975646, 1.9258601000001363]",,,,21,001,E,2023_Feb_09_1520,student_TT_local,2021.1.4,48.5125094351209,
,None,None,None,None,None,None,None,None,None,None,botany,trench,19.5,20.5,video&audio/ethnic_touch_edited.mp4,video&audio/Sentence4_touch_edited.mp4,ethnic,goblet,None,,,,,,,,,,,,,,,,,,,,,,,,,,,,,,,,,,,,,,,,,,,,,,,,,,,,,,,,,,,0,13,13,27,,,,,,,,,,,,,,,,None,,,,,,,,,,,,,,,,,,,,,,,,,None, goblet,"['g', 'o', 'b', 'l', 'e', 't', 'y', 'return']","[0.35396299999774783, 0.449799099998927, 0.7462235999992117, 1.0182752000000619, 1.169774599999073, 1.4577428999982658, 1.4738061999996717, 1.6499242999998387]",,,,21,001,E,2023_Feb_09_1520,student_TT_local,2021.1.4,48.5125094351209,
,None,None,None,None,None,None,None,None,None,None,neural,septic,6.5,7.5,video&audio/innate_TT_3X.mp4,video&audio/sentence2_TT_3X.mp4,ordain,potent,None,,,,,,,,,,,,,,,,,,,,,,,,,,,,,,,,,,,,,,,,,,,,,,,,,,,,,,,,,,,0,14,14,13,,,,,,,,,,,,,,,,None,,,,,,,,,,,,,,,,,,,,,,,,,None, potent,"['p', 'o', 't', 'e', 'n', 't', 'return']","[0.38923740000245743, 0.4852734000014607, 0.6933003000012832, 0.8051577000005636, 0.9494986000026984, 1.0774029000021983, 1.2294338000028802]",,,,21,001,E,2023_Feb_09_1520,student_TT_local,2021.1.4,48.5125094351209,
,None,None,None,None,None,None,None,None,None,None,debtor,output,19.5,20.5,video&audio/uphold_touch_edited.mp4,video&audio/Sentence1_touch_edited.mp4,uphold,pursue,None,,,,,,,,,,,,,,,,,,,,,,,,,,,,,,,,,,,,,,,,,,,,,,,,,,,,,,,,,,,0,15,15,18,,,,,,,,,,,,,,,,None,,,,,,,,,,,,,,,,,,,,,,,,,None, pursue,"['p', 'u', 'r', 's', 'u', 'e', 'return']","[0.33166549999805284, 0.4277383999979065, 0.6594360999988567, 0.9156928999982483, 1.0356648999986646, 1.3237012999998115, 1.4357315999986895]",,,,21,001,E,2023_Feb_09_1520,student_TT_local,2021.1.4,48.5125094351209,
,None,None,None,None,None,None,None,None,None,None,belfry,girdle,19.5,20.5,video&audio/linear_touch_edited.mp4,video&audio/Sentence6_touch_edited.mp4,linear,impose,None,,,,,,,,,,,,,,,,,,,,,,,,,,,,,,,,,,,,,,,,,,,,,,,,,,,,,,,,,,,0,16,16,23,,,,,,,,,,,,,,,,None,,,,,,,,,,,,,,,,,,,,,,,,,None, impose,"['i', 'm', 'p', 'o', 's', 'e', 'return']","[0.3667810000006284, 0.45452099999965867, 0.7664834999995946, 0.8785897000016121, 1.0544936000005691, 1.1825468000024557, 1.3983517000015127]",,,,21,001,E,2023_Feb_09_1520,student_TT_local,2021.1.4,48.5125094351209,
,None,None,None,None,None,None,None,None,None,None,falter,tandem,19.5,20.5,video&audio/origin_touch_edited.mp4,video&audio/Sentence4_touch_edited.mp4,origin,coerce,None,,,,,,,,,,,,,,,,,,,,,,,,,,,,,,,,,,,,,,,,,,,,,,,,,,,,,,,,,,,0,17,17,15,,,,,,,,,,,,,,,,None,,,,,,,,,,,,,,,,,,,,,,,,,None, coerce,"['c', 'o', 'e', 'r', 'c', 'e', 'return']","[0.3536988999985624, 0.4818457000001217, 1.0657895000003919, 1.1618209000007482, 1.473797700000432, 1.6021284999987984, 1.842225899999903]",,,,21,001,E,2023_Feb_09_1520,student_TT_local,2021.1.4,48.5125094351209,
,None,None,None,None,None,None,None,None,None,None,covert,patent,6.5,7.5,video&audio/defame_TT_3X.mp4,video&audio/sentence6_TT_3X.mp4,defame,quarry,None,,,,,,,,,,,,,,,,,,,,,,,,,,,,,,,,,,,,,,,,,,,,,,,,,,,,,,,,,,,0,18,18,11,,,,,,,,,,,,,,,,None,,,,,,,,,,,,,,,,,,,,,,,,,None, quarry,"['q', 'u', 'a', 'r', 'r', 'y', 'return']","[0.4534848000002967, 0.533557099999598, 0.7736194999997679, 1.1414561000019603, 1.317508000000089, 1.445556900001975, 1.9734330999999656]",,,,21,001,E,2023_Feb_09_1520,student_TT_local,2021.1.4,48.5125094351209,
,None,None,None,None,None,None,None,None,None,None,subtle,fungal,19.5,20.5,video&audio/mucous_touch_edited.mp4,video&audio/Sentence5_touch_edited.mp4,mucous,musket,None,,,,,,,,,,,,,,,,,,,,,,,,,,,,,,,,,,,,,,,,,,,,,,,,,,,,,,,,,,,0,19,19,22,,,,,,,,,,,,,,,,None,,,,,,,,,,,,,,,,,,,,,,,,,None, musket,"['m', 'u', 's', 'k', 'e', 't', 'return']","[0.3617904999991879, 0.4179383000009693, 0.6497935999977926, 0.9296375999983866, 1.0338009000006423, 1.2898222000003443, 1.43406259999756]",,,,21,001,E,2023_Feb_09_1520,student_TT_local,2021.1.4,48.5125094351209,
,"While you watch the video, imagine yourself typing the word on the screen, like how you did in the imagery practice. While you watch the video and imagine this, rest your hands on your keyboard but DO NOT type until AFTER you see the typing prompt.

Press 'enter/return' to go to the next page.","While watching the video, imagine yourself typing the word on the screen, like how you did in the imagery practice. While you watch the video and imagine this, rest your hands on your keyboard but DO NOT type until AFTER you see the typing prompt.

Press 'enter/return' to go to the next page.",video&audio/Example_AOMI_imagine.png,1.6,1,butter,6.5,7.5,video&audio/butter_TT_3X.mp4,video&audio/amount_TT_3X.mp4,ascend,metric,6.5,7.5,video&audio/eatery_TT_3X.mp4,video&audio/sentence2_TT_3X.mp4,eatery,plight,2 = AOMIgen,,,,,,,,,,,,,,,,,,,,,,,,,,,,,,,,,,,,,,,,,,,,,,,,,,,,,,,,,,,0,20,20,1,,,,,,,,,,,,,,,,None,,,,,,,,,,,,,,,,,,,,,,,,,None, p;ight,"['p', 'semicolon', 'i', 'g', 'h', 't', 'return']","[0.30717749999894295, 0.6111504000000423, 0.8351903999973729, 1.027494800000568, 1.1154802999990352, 1.275202900000295, 1.4352295999997295]",,,,21,001,E,2023_Feb_09_1520,student_TT_local,2021.1.4,48.5125094351209,
,None,None,None,None,None,None,None,None,None,None,hippie,hearth,6.5,7.5,video&audio/herbal_TT_3X.mp4,video&audio/sentence3_TT_3X.mp4,herbal,deduct,None,,,,,,,,,,,,,,,,,,,,,,,,,,,,,,,,,,,,,,,,,,,,,,,,,,,,,,,,,,,0,21,21,14,,,,,,,,,,,,,,,,None,,,,,,,,,,,,,,,,,,,,,,,,,None, deduct,"['d', 'e', 'd', 'u', 'c', 't', 'return']","[0.29922650000298745, 0.37057260000074166, 0.786513200000627, 0.9232569000014337, 1.1228162000006705, 1.4105509000000893, 1.5626112000027206]",,,,21,001,E,2023_Feb_09_1520,student_TT_local,2021.1.4,48.5125094351209,
,None,None,None,None,None,None,None,None,None,None,cortex,induce,19.5,20.5,video&audio/mussel_touch_edited.mp4,video&audio/Sentence4_touch_edited.mp4,mussel,satire,None,,,,,,,,,,,,,,,,,,,,,,,,,,,,,,,,,,,,,,,,,,,,,,,,,,,,,,,,,,,0,22,22,21,,,,,,,,,,,,,,,,None,,,,,,,,,,,,,,,,,,,,,,,,,None, satire,"['s', 'a', 't', 'i', 'r', 'e', 'return']","[0.3613913000008324, 0.49780870000176947, 0.7854928000015207, 0.9057693000031577, 1.0495286000004853, 1.1774378000009165, 1.4337298000027658]",,,,21,001,E,2023_Feb_09_1520,student_TT_local,2021.1.4,48.5125094351209,
,None,None,None,None,None,None,None,None,None,None,virile,joiner,6.5,7.5,video&audio/apathy_TT_3X.mp4,video&audio/sentence6_TT_3X.mp4,apathy,revolt,None,,,,,,,,,,,,,,,,,,,,,,,,,,,,,,,,,,,,,,,,,,,,,,,,,,,,,,,,,,,0,23,23,5,,,,,,,,,,,,,,,,None,,,,,,,,,,,,,,,,,,,,,,,,,None, revolt,"['r', 'e', 'v', 'o', 'l', 't', 'return']","[0.36824260000139475, 0.4641531000015675, 0.9121139999988372, 0.9766152000011061, 1.1921376999998756, 1.3442084999987856, 1.472102100000484]",,,,21,001,E,2023_Feb_09_1520,student_TT_local,2021.1.4,48.5125094351209,
,None,None,None,None,None,None,None,None,None,None,solemn,befall,6.5,7.5,video&audio/ration_TT_3X.mp4,video&audio/sentence3_TT_3X.mp4,ration,parole,None,,,,,,,,,,,,,,,,,,,,,,,,,,,,,,,,,,,,,,,,,,,,,,,,,,,,,,,,,,,0,24,24,8,,,,,,,,,,,,,,,,None,,,,,,,,,,,,,,,,,,,,,,,,,None, parole,"['p', 'a', 'r', 'o', 'l', 'e', 'return']","[0.2903745000003255, 0.3865154999984952, 0.6586547999977483, 0.7464295999998285, 0.9623754999993253, 1.1147676999971736, 1.2424668999992718]",,,,21,001,E,2023_Feb_09_1520,student_TT_local,2021.1.4,48.5125094351209,
,None,None,None,None,None,None,None,None,None,None,obsess,zephyr,6.5,7.5,video&audio/fusion_TT_3X.mp4,video&audio/sentence5_TT_3X.mp4,fusion,critic,None,,,,,,,,,,,,,,,,,,,,,,,,,,,,,,,,,,,,,,,,,,,,,,,,,,,,,,,,,,,0,25,25,10,,,,,,,,,,,,,,,,None,,,,,,,,,,,,,,,,,,,,,,,,,None, critic,"['c', 'r', 'i', 't', 'i', 'c', 'return']","[0.3933937000001606, 0.5289826000007452, 0.6811495000001742, 0.9290521000002627, 1.0410453000004054, 1.1930633000010857, 1.3452824000014516]",,,,21,001,E,2023_Feb_09_1520,student_TT_local,2021.1.4,48.5125094351209,
,None,None,None,None,None,None,None,None,None,None,ritual,clergy,19.5,20.5,video&audio/portal_touch_edited.mp4,video&audio/Sentence6_touch_edited.mp4,portal,murmur,None,,,,,,,,,,,,,,,,,,,,,,,,,,,,,,,,,,,,,,,,,,,,,,,,,,,,,,,,,,,0,26,26,17,,,,,,,,,,,,,,,,None,,,,,,,,,,,,,,,,,,,,,,,,,None, murmur,"['m', 'u', 'r', 'm', 'u', 'r', 'return']","[0.33610739999858197, 0.408441399998992, 0.5682473999986541, 0.7762914000013552, 0.9282628000000841, 1.0405471000012767, 1.344471500000509]",,,,21,001,E,2023_Feb_09_1520,student_TT_local,2021.1.4,48.5125094351209,
,None,None,None,None,None,None,None,None,None,None,forage,campus,19.5,20.5,video&audio/allure_touch_edited.mp4,video&audio/Sentence6_touch_edited.mp4,allure,binder,None,,,,,,,,,,,,,,,,,,,,,,,,,,,,,,,,,,,,,,,,,,,,,,,,,,,,,,,,,,,0,27,27,29,,,,,,,,,,,,,,,,None,,,,,,,,,,,,,,,,,,,,,,,,,None, binder,"['b', 'i', 'n', 'd', 'e', 'r', 'return']","[0.35209110000141663, 0.4163802000002761, 0.58414300000004, 0.7604355000003125, 0.8881542000017362, 1.0804547000007005, 1.2244075999988127]",,,,21,001,E,2023_Feb_09_1520,student_TT_local,2021.1.4,48.5125094351209,
,None,None,None,None,None,None,None,None,None,None,cervix,cobble,19.5,20.5,video&audio/export_touch_edited.mp4,video&audio/Sentence2_touch_edited.mp4,export,savant,None,,,,,,,,,,,,,,,,,,,,,,,,,,,,,,,,,,,,,,,,,,,,,,,,,,,,,,,,,,,0,28,28,19,,,,,,,,,,,,,,,,None,,,,,,,,,,,,,,,,,,,,,,,,,None, savant,"['s', 'a', 'n', 'backspace', 'v', 'a', 'n', 't', 'return']","[0.2620198000004166, 0.36626930000056745, 0.6539085000003979, 1.1339705999998841, 1.3103891999999178, 1.4620107000009739, 1.6222391000010248, 1.8221525000008114, 2.0382501000021875]",,,,21,001,E,2023_Feb_09_1520,student_TT_local,2021.1.4,48.5125094351209,
,None,None,None,None,None,None,None,None,None,None,confer,innate,6.5,7.5,video&audio/tamper_TT_3X.mp4,video&audio/sentence1_TT_3X.mp4,tamper,sonnet,None,,,,,,,,,,,,,,,,,,,,,,,,,,,,,,,,,,,,,,,,,,,,,,,,,,,,,,,,,,,0,29,29,12,,,,,,,,,,,,,,,,None,,,,,,,,,,,,,,,,,,,,,,,,,None, sonnet,"['s', 'o', 'n', 'n', 'e', 't', 'return']","[0.3379227000004903, 0.4499595000015688, 0.7059714999995776, 0.8498658999997133, 0.9379398999990372, 1.1862905000016326, 1.2902558000023419]",,,,21,001,E,2023_Feb_09_1520,student_TT_local,2021.1.4,48.5125094351209,
,,,,,,,,,,,,,,,,,,,,typingRatingScale.png,"How would you rate your typing performance in the previous section?

Press a number on your keyboard according to the rating scale below to give your answer. Your first answer will be accepted.",,,,,,,,,,,,,,,,,,,,,,,,,,,,,,,,,,,,,,,,,,,,,,,,,,,,,,,,,,,,,0,0,0,0,,,,,,,,,,,,,,,,,,,,,,,,,,,,,,,,,,,,,,,,,,['3'],[9.767740100000083],21,001,E,2023_Feb_09_1520,student_TT_local,2021.1.4,48.5125094351209,
,,,,,,,,,,,,,,,,,,,,visualImageryScale.png,"While imagining yourself typing, how clear was your visual image?

Press a number on your keyboard according to the rating scale below to give your answer. Your first answer will be accepted.",,,,,,,,,,,,,,,,,,,,,,,,,,,,,,,,,,,,,,,,,,,,,,,,,,,,,,,,,,,,,0,1,1,1,,,,,,,,,,,,,,,,,,,,,,,,,,,,,,,,,,,,,,,,,,['5'],[7.368487899999309],21,001,E,2023_Feb_09_1520,student_TT_local,2021.1.4,48.5125094351209,
,,,,,,,,,,,,,,,,,,,,kinestheticImageryScale.png,"While imagining yourself typing, how intense were the sensations associated with the imagined movement?

Press a number on your keyboard according to the rating scale below to give your answer. Your first answer will be accepted.",,,,,,,,,,,,,,,,,,,,,,,,,,,,,,,,,,,,,,,,,,,,,,,,,,,,,,,,,,,,,0,2,2,2,,,,,,,,,,,,,,,,,,,,,,,,,,,,,,,,,,,,,,,,,,['1'],[8.87500910000017],21,001,E,2023_Feb_09_1520,student_TT_local,2021.1.4,48.5125094351209,
