pracWords,instr_1,instr_2,AOMI_Ima,AOMI_w,AOMI_h,practiceWords,prac_time,prac_bkgd_time,pracVid_1,pracVid_2,baseline_words,control_words,cont_time,cont_bgkd_time,first_vids,second_vids,AOMIfirst_words,AOMIsecond_words,Order,ratingScale,rateInstr,instructLoop.thisRepN,instructLoop.thisTrialN,instructLoop.thisN,instructLoop.thisIndex,practice_control.thisRepN,practice_control.thisTrialN,practice_control.thisN,practice_control.thisIndex,trials_1.thisRepN,trials_1.thisTrialN,trials_1.thisN,trials_1.thisIndex,baseRateLoop.thisRepN,baseRateLoop.thisTrialN,baseRateLoop.thisN,baseRateLoop.thisIndex,AOMIinstrLoop1.thisRepN,AOMIinstrLoop1.thisTrialN,AOMIinstrLoop1.thisN,AOMIinstrLoop1.thisIndex,AOMIpracLoop.thisRepN,AOMIpracLoop.thisTrialN,AOMIpracLoop.thisN,AOMIpracLoop.thisIndex,trials_2.thisRepN,trials_2.thisTrialN,trials_2.thisN,trials_2.thisIndex,AOMI1rateLoop.thisRepN,AOMI1rateLoop.thisTrialN,AOMI1rateLoop.thisN,AOMI1rateLoop.thisIndex,contInstrLoop.thisRepN,contInstrLoop.thisTrialN,contInstrLoop.thisN,contInstrLoop.thisIndex,contPracLoop.thisRepN,contPracLoop.thisTrialN,contPracLoop.thisN,contPracLoop.thisIndex,trials_3.thisRepN,trials_3.thisTrialN,trials_3.thisN,trials_3.thisIndex,contRateLoop.thisRepN,contRateLoop.thisTrialN,contRateLoop.thisN,contRateLoop.thisIndex,AOMIinstrLoop2.thisRepN,AOMIinstrLoop2.thisTrialN,AOMIinstrLoop2.thisN,AOMIinstrLoop2.thisIndex,AOMIpracLoop2.thisRepN,AOMIpracLoop2.thisTrialN,AOMIpracLoop2.thisN,AOMIpracLoop2.thisIndex,trials_4.thisRepN,trials_4.thisTrialN,trials_4.thisN,trials_4.thisIndex,AOMI2rateLoop.thisRepN,AOMI2rateLoop.thisTrialN,AOMI2rateLoop.thisN,AOMI2rateLoop.thisIndex,pracBkgdKeys.keys,pracKeys.keys,pracKeys.rt,baseBkgdKeys.keys,base_typedWord,baseKeys.keys,baseKeys.rt,baseBkgdKeys.rt,baseRateTypeKey.keys,baseRateTypeKey.rt,AOMI1_BkgdKeys.keys,AOMI_promptBkgdKeys.keys,AOMI1pracKeys.keys,AOMI1pracKeys.rt,AOMI1bkdgKeys.keys,AOMI1_typedWord,AOMI1keys.keys,AOMI1keys.rt,AOMI_promptBkgdKeys.rt,AOMI1rateTypeKey.keys,AOMI1rateTypeKey.rt,polygon_prac.started,polygon_prac.stopped,contBkgdKeys_prac.keys,contPrac_typedWord,contKeys_prac.keys,contKeys_prac.rt,polygon.started,polygon.stopped,contBkgdKeys.keys,cont_typedWord,contKeys.keys,contKeys.rt,contTypeKey.keys,contTypeKey.rt,bkgdkeys_prac2.keys,bkgdKeys4.keys,AOMI2_typedWord,keyboardCom4.keys,keyboardCom4.rt,AOMI2typeKey.keys,AOMI2typeKey.rt,participant,session,group,date,expName,psychopyVersion,frameRate,
height,,,,,,,,,,,,,,,,,,,,,,,,,,0,0,0,0,,,,,,,,,,,,,,,,,,,,,,,,,,,,,,,,,,,,,,,,,,,,,,,,,,,,,,,,,None,"['h', 'e', 'i', 'g', 'h', 't', 'return']","[0.5251633999869227, 1.101687500020489, 1.5414450999815017, 1.9891476000193506, 2.205805399978999, 2.365568400011398, 3.0371283999993466]",,,,,,,,,,,,,,,,,,,,,,,,,,,,,,,,,,,,,,,,22,001,C,2023_Feb_15_1045,student_TT_local,2021.1.4,48.06035611618135,
replay,,,,,,,,,,,,,,,,,,,,,,,,,,0,1,1,1,,,,,,,,,,,,,,,,,,,,,,,,,,,,,,,,,,,,,,,,,,,,,,,,,,,,,,,,,None,"['e', 'p', 'l', 'a', 'y', 'return']","[0.28986979997716844, 0.546153100032825, 0.7938635000027716, 1.0186105000320822, 1.249900599999819, 2.387090000032913]",,,,,,,,,,,,,,,,,,,,,,,,,,,,,,,,,,,,,,,,22,001,C,2023_Feb_15_1045,student_TT_local,2021.1.4,48.06035611618135,
update,,,,,,,,,,,,,,,,,,,,,,,,,,0,2,2,2,,,,,,,,,,,,,,,,,,,,,,,,,,,,,,,,,,,,,,,,,,,,,,,,,,,,,,,,,None,"['u', 'p', 'd', 'a', 't', 'e', 'return']","[0.43008009996265173, 0.9583036999683827, 1.349702499981504, 1.7016546999802813, 1.9978182999766432, 2.2618495000060648, 2.621642599988263]",,,,,,,,,,,,,,,,,,,,,,,,,,,,,,,,,,,,,,,,22,001,C,2023_Feb_15_1045,student_TT_local,2021.1.4,48.06035611618135,
,None,None,None,None,None,None,None,None,None,None,portal,ritual,6.5,7.5,video&audio/coerce_TT_3X.mp4,video&audio/sentence6_TT_3X.mp4,coerce,clergy,None,,,,,,,,,,,0,0,0,17,,,,,,,,,,,,,,,,,,,,,,,,,,,,,,,,,,,,,,,,,,,,,,,,,,,,,,,,None, portal,"['p', 'o', 'r', 't', 'a', 'l', 'return']","[0.6798964999616146, 1.0881373999873176, 1.4165562999551184, 1.7283760999562219, 1.9999927000026219, 2.3759628999978304, 2.9284999999799766]",,,,,,,,,,,,,,,,,,,,,,,,,,,,,,,,,,,,22,001,C,2023_Feb_15_1045,student_TT_local,2021.1.4,48.06035611618135,
,None,None,None,None,None,None,None,None,None,None,divert,kipper,6.5,7.5,video&audio/musket_TT_3X.mp4,video&audio/sentence2_TT_3X.mp4,musket,meddle,None,,,,,,,,,,,0,1,1,25,,,,,,,,,,,,,,,,,,,,,,,,,,,,,,,,,,,,,,,,,,,,,,,,,,,,,,,,None, divert,"['d', 'i', 'v', 'e', 'r', 't', 'return']","[0.6686434000148438, 0.972687000001315, 1.3160794000141323, 1.5324200000031851, 1.7240815999684855, 1.908583800017368, 2.3244476999971084]",,,,,,,,,,,,,,,,,,,,,,,,,,,,,,,,,,,,22,001,C,2023_Feb_15_1045,student_TT_local,2021.1.4,48.06035611618135,
,None,None,None,None,None,None,None,None,None,None,gullet,picket,6.5,7.5,video&audio/upkeep_TT_3X.mp4,video&audio/sentence5_TT_3X.mp4,upkeep,parish,None,,,,,,,,,,,0,2,2,28,,,,,,,,,,,,,,,,,,,,,,,,,,,,,,,,,,,,,,,,,,,,,,,,,,,,,,,,None, gullet,"['g', 'u', 'l', 'l', 'e', 't', 'return']","[0.423104899993632, 0.7907110000378452, 1.111092000035569, 1.2953761999960989, 1.4956351000000723, 1.6949197000358254, 2.3591407000203617]",,,,,,,,,,,,,,,,,,,,,,,,,,,,,,,,,,,,22,001,C,2023_Feb_15_1045,student_TT_local,2021.1.4,48.06035611618135,
,None,None,None,None,None,None,None,None,None,None,warble,devise,6.5,7.5,video&audio/satire_TT_3X.mp4,video&audio/sentence1_TT_3X.mp4,satire,mangle,None,,,,,,,,,,,0,3,3,24,,,,,,,,,,,,,,,,,,,,,,,,,,,,,,,,,,,,,,,,,,,,,,,,,,,,,,,,None, warble,"['w', 'a', 'r', 'b', 'l', 'e', 'return']","[0.46063350001350045, 0.7878405000083148, 1.1724023999995552, 1.4282165000331588, 1.7641557000461034, 2.1079130000434816, 2.3879194000037387]",,,,,,,,,,,,,,,,,,,,,,,,,,,,,,,,,,,,22,001,C,2023_Feb_15_1045,student_TT_local,2021.1.4,48.06035611618135,
,None,None,None,None,None,None,None,None,None,None,galley,tariff,19.5,20.5,video&audio/strife_touch_edited.mp4,video&audio/Sentence2_touch_edited.mp4,strife,delude,None,,,,,,,,,,,0,4,4,7,,,,,,,,,,,,,,,,,,,,,,,,,,,,,,,,,,,,,,,,,,,,,,,,,,,,,,,,None, galley,"['g', 'a', 'l', 'l', 'e', 'y', 'return']","[0.37921490002190694, 0.6593438000418246, 1.0193626999971457, 1.155606800050009, 1.3074311000527814, 1.4913334000157192, 2.1072649999987334]",,,,,,,,,,,,,,,,,,,,,,,,,,,,,,,,,,,,22,001,C,2023_Feb_15_1045,student_TT_local,2021.1.4,48.06035611618135,
,"This is Section 2.

In this section, your task will be the same as before - that is, to type the word you see on the screen after the typing prompt. However, rather than just seeing the word before typing, you will also see a video of someone typing the same word you will need to type at various speeds. 

Press 'enter/return' to go to the next page.","This is Section 4. 

In this section, your task will be the same as before - that is, to type the word you see on the screen after the typing prompt. You will see a video again, like in Section 2, only this time, the video will show someone typing different words to what you must type at various speeds. 

Press 'enter/return' to go to the next page.",video&audio/Example_AOMI_layout.png,1.6,0.6,afford,19.5,20.5,video&audio/afford_touch_edited.mp4,video&audio/amount_touch_edited.mp4,breach,matrix,19.5,20.5,video&audio/vanity_touch_edited.mp4,video&audio/Sentence1_touch_edited.mp4,vanity,hinder,1 = AOMIspec,,,,,,,,,,,0,5,5,0,,,,,,,,,,,,,,,,,,,,,,,,,,,,,,,,,,,,,,,,,,,,,,,,,,,,,,,,None, breach,"['b', 'r', 'e', 'a', 'c', 'h', 'return']","[0.6392130999593064, 0.8637604999821633, 1.0634744999697432, 1.3189719999791123, 1.5992168000084348, 1.727255799982231, 2.006974599964451]",,,,,,,,,,,,,,,,,,,,,,,,,,,,,,,,,,,,22,001,C,2023_Feb_15_1045,student_TT_local,2021.1.4,48.06035611618135,
,None,None,None,None,None,None,None,None,None,None,matron,subdue,6.5,7.5,video&audio/impose_TT_3X.mp4,video&audio/sentence3_TT_3X.mp4,impose,feudal,None,,,,,,,,,,,0,6,6,26,,,,,,,,,,,,,,,,,,,,,,,,,,,,,,,,,,,,,,,,,,,,,,,,,,,,,,,,None, matron,"['m', 'a', 't', 'r', 'o', 'n', 'return']","[0.4163655000156723, 0.6803732999833301, 0.9049889000016265, 1.0964274000143632, 1.3763475000159815, 1.5683851999929175, 1.8163325000205077]",,,,,,,,,,,,,,,,,,,,,,,,,,,,,,,,,,,,22,001,C,2023_Feb_15_1045,student_TT_local,2021.1.4,48.06035611618135,
,None,None,None,None,None,None,None,None,None,None,revoke,malady,19.5,20.5,video&audio/mirage_touch_edited.mp4,video&audio/Sentence1_touch_edited.mp4,mirage,shrewd,None,,,,,,,,,,,0,7,7,6,,,,,,,,,,,,,,,,,,,,,,,,,,,,,,,,,,,,,,,,,,,,,,,,,,,,,,,,None, revoke,"['r', 'e', 'v', 'o', 'k', 'e', 'return']","[0.7493381999665871, 0.949413399968762, 1.2771230000071228, 1.5010932000004686, 1.7172223999514244, 1.877176399983, 2.1891043999930844]",,,,,,,,,,,,,,,,,,,,,,,,,,,,,,,,,,,,22,001,C,2023_Feb_15_1045,student_TT_local,2021.1.4,48.06035611618135,
,None,None,None,None,None,None,None,None,None,None,entail,parcel,19.5,20.5,video&audio/novice_touch_edited.mp4,video&audio/Sentence5_touch_edited.mp4,novice,primal,None,,,,,,,,,,,0,8,8,4,,,,,,,,,,,,,,,,,,,,,,,,,,,,,,,,,,,,,,,,,,,,,,,,,,,,,,,,None, entail,"['e', 'n', 't', 'a', 'i', 'l', 'return']","[0.7005153999780305, 0.9727838999824598, 1.3005460999556817, 1.5490897999843583, 1.8287539999582805, 2.124503300001379, 2.5491665999870747]",,,,,,,,,,,,,,,,,,,,,,,,,,,,,,,,,,,,22,001,C,2023_Feb_15_1045,student_TT_local,2021.1.4,48.06035611618135,
,None,None,None,None,None,None,None,None,None,None,ordain,neural,19.5,20.5,video&audio/quarry_touch_edited.mp4,video&audio/Sentence2_touch_edited.mp4,quarry,septic,None,,,,,,,,,,,0,9,9,13,,,,,,,,,,,,,,,,,,,,,,,,,,,,,,,,,,,,,,,,,,,,,,,,,,,,,,,,None, ordain,"['o', 'r', 'd', 'a', 'i', 'n', 'return']","[0.6013322999933735, 0.9692232999950647, 1.2577431999961846, 1.5448735000099987, 1.809240700036753, 2.0493210999993607, 2.45739609998418]",,,,,,,,,,,,,,,,,,,,,,,,,,,,,,,,,,,,22,001,C,2023_Feb_15_1045,student_TT_local,2021.1.4,48.06035611618135,
,None,None,None,None,None,None,None,None,None,None,linear,belfry,6.5,7.5,video&audio/manure_TT_3X.mp4,video&audio/sentence6_TT_3X.mp4,manure,girdle,None,,,,,,,,,,,0,10,10,23,,,,,,,,,,,,,,,,,,,,,,,,,,,,,,,,,,,,,,,,,,,,,,,,,,,,,,,,None, linear,"['l', 'i', 'n', 'e', 'a', 'r', 'return']","[0.4214283000328578, 0.7657419000170194, 0.9981099999858998, 1.2138083000318147, 1.517528800002765, 1.7494111999985762, 2.4295124000054784]",,,,,,,,,,,,,,,,,,,,,,,,,,,,,,,,,,,,22,001,C,2023_Feb_15_1045,student_TT_local,2021.1.4,48.06035611618135,
,None,None,None,None,None,None,None,None,None,None,herbal,hippie,19.5,20.5,video&audio/sonnet_touch_edited.mp4,video&audio/Sentence3_touch_edited.mp4,sonnet,hearth,None,,,,,,,,,,,0,11,11,14,,,,,,,,,,,,,,,,,,,,,,,,,,,,,,,,,,,,,,,,,,,,,,,,,,,,,,,,None, herbal,"['h', 'e', 'r', 'b', 'a', 'l', 'return']","[0.6789748999872245, 0.9272089999867603, 1.1345806999597698, 1.3186329999589361, 1.5826014999765903, 1.8145851999870501, 2.206886400002986]",,,,,,,,,,,,,,,,,,,,,,,,,,,,,,,,,,,,22,001,C,2023_Feb_15_1045,student_TT_local,2021.1.4,48.06035611618135,
,None,None,None,None,None,None,None,None,None,None,tamper,confer,19.5,20.5,video&audio/critic_touch_edited.mp4,video&audio/Sentence1_touch_edited.mp4,critic,innate,None,,,,,,,,,,,0,12,12,12,,,,,,,,,,,,,,,,,,,,,,,,,,,,,,,,,,,,,,,,,,,,,,,,,,,,,,,,None, tamper,"['t', 'a', 'm', 'p', 'e', 'r', 'return']","[0.4288049999740906, 0.5812784999725409, 1.092880200012587, 1.332936399965547, 1.5895819999859668, 1.7651201999979094, 2.1650882000103593]",,,,,,,,,,,,,,,,,,,,,,,,,,,,,,,,,,,,22,001,C,2023_Feb_15_1045,student_TT_local,2021.1.4,48.06035611618135,
,None,None,None,None,None,None,None,None,None,None,export,cervix,6.5,7.5,video&audio/murmur_TT_3X.mp4,video&audio/sentence2_TT_3X.mp4,murmur,cobble,None,,,,,,,,,,,0,13,13,19,,,,,,,,,,,,,,,,,,,,,,,,,,,,,,,,,,,,,,,,,,,,,,,,,,,,,,,,None, export,"['e', 'x', 'p', 'o', 'r', 't', 'return']","[0.4052883999538608, 1.0765953999944031, 1.3006478999741375, 1.5326362999621779, 1.685014399990905, 1.8686707000015303, 2.157022200000938]",,,,,,,,,,,,,,,,,,,,,,,,,,,,,,,,,,,,22,001,C,2023_Feb_15_1045,student_TT_local,2021.1.4,48.06035611618135,
,None,None,None,None,None,None,None,None,None,None,mussel,cortex,6.5,7.5,video&audio/savant_TT_3X.mp4,video&audio/sentence4_TT_3X.mp4,savant,induce,None,,,,,,,,,,,0,14,14,21,,,,,,,,,,,,,,,,,,,,,,,,,,,,,,,,,,,,,,,,,,,,,,,,,,,,,,,,None, mussel,"['m', 'u', 's', 's', 'e', 'l', 'return']","[0.2766713000019081, 0.5167572999489494, 0.7007429999648593, 0.8288272999925539, 1.0046490999520756, 1.1649651999468915, 1.428865699970629]",,,,,,,,,,,,,,,,,,,,,,,,,,,,,,,,,,,,22,001,C,2023_Feb_15_1045,student_TT_local,2021.1.4,48.06035611618135,
,None,None,None,None,None,None,None,None,None,None,mucous,subtle,6.5,7.5,video&audio/brazen_TT_3X.mp4,video&audio/sentence5_TT_3X.mp4,brazen,fungal,None,,,,,,,,,,,0,15,15,22,,,,,,,,,,,,,,,,,,,,,,,,,,,,,,,,,,,,,,,,,,,,,,,,,,,,,,,,"['m', 'u', 'c']", mucous,"['m', 'u', 'c', 'o', 'u', 's', 'return']","[0.8663057000376284, 1.1786173000000417, 1.746477100008633, 2.3061319999978878, 2.5382214999990538, 2.7463642000220716, 3.8422131999977864]","[1.172985500015784, 1.4369403999880888, 1.8370746999862604]",,,,,,,,,,,,,,,,,,,,,,,,,,,,,,,,,,,22,001,C,2023_Feb_15_1045,student_TT_local,2021.1.4,48.06035611618135,
,None,None,None,None,None,None,None,None,None,None,fusion,obsess,19.5,20.5,video&audio/sherry_touch_edited.mp4,video&audio/Sentence5_touch_edited.mp4,sherry,zephyr,None,,,,,,,,,,,0,16,16,10,,,,,,,,,,,,,,,,,,,,,,,,,,,,,,,,,,,,,,,,,,,,,,,,,,,,,,,,None, fusion,"['f', 'u', 's', 'i', 'o', 'n', 'return']","[0.994725099997595, 1.3225429999874905, 1.5708034000126645, 1.8111968000303023, 1.978489700006321, 2.2911926999804564, 3.0825025999802165]",,,,,,,,,,,,,,,,,,,,,,,,,,,,,,,,,,,,22,001,C,2023_Feb_15_1045,student_TT_local,2021.1.4,48.06035611618135,
,None,None,None,None,None,None,None,None,None,None,apathy,virile,19.5,20.5,video&audio/revolt_touch_edited.mp4,video&audio/Sentence6_touch_edited.mp4,revolt,joiner,None,,,,,,,,,,,0,17,17,5,,,,,,,,,,,,,,,,,,,,,,,,,,,,,,,,,,,,,,,,,,,,,,,,,,,,,,,,None, apathy,"['a', 'p', 'a', 't', 'h', 'y', 'return']","[0.8088269000290893, 1.072551699995529, 1.1769790000398643, 1.4970235000364482, 1.6970119000179693, 1.888582400046289, 2.552862200012896]",,,,,,,,,,,,,,,,,,,,,,,,,,,,,,,,,,,,22,001,C,2023_Feb_15_1045,student_TT_local,2021.1.4,48.06035611618135,
,None,None,None,None,None,None,None,None,None,None,mystic,pulpit,19.5,20.5,video&audio/infirm_touch_edited.mp4,video&audio/Sentence4_touch_edited.mp4,infirm,oblige,None,,,,,,,,,,,0,18,18,3,,,,,,,,,,,,,,,,,,,,,,,,,,,,,,,,,,,,,,,,,,,,,,,,,,,,,,,,None, mystic,"['m', 'y', 's', 't', 'i', 'c', 'return']","[0.7094291999819688, 1.0055211000144482, 1.181492800009437, 1.325391300022602, 1.7095500999712385, 1.909453800006304, 2.3815777999698184]",,,,,,,,,,,,,,,,,,,,,,,,,,,,,,,,,,,,22,001,C,2023_Feb_15_1045,student_TT_local,2021.1.4,48.06035611618135,
,None,None,None,None,None,None,None,None,None,None,shroud,jackal,19.5,20.5,video&audio/parole_touch_edited.mp4,video&audio/Sentence4_touch_edited.mp4,parole,hamlet,None,,,,,,,,,,,0,19,19,9,,,,,,,,,,,,,,,,,,,,,,,,,,,,,,,,,,,,,,,,,,,,,,,,,,,,,,,,None, shroud,"['s', 'h', 'r', 'o', 'u', 'd', 'return']","[0.7123115999856964, 0.8247644999646582, 1.256736799958162, 1.4645201999810524, 1.7368739999947138, 1.9363755999947898, 2.4884546999819577]",,,,,,,,,,,,,,,,,,,,,,,,,,,,,,,,,,,,22,001,C,2023_Feb_15_1045,student_TT_local,2021.1.4,48.06035611618135,
,None,None,None,None,None,None,None,None,None,None,nettle,plasma,6.5,7.5,video&audio/deduct_TT_3X.mp4,video&audio/sentence5_TT_3X.mp4,deduct,jailer,None,,,,,,,,,,,0,20,20,16,,,,,,,,,,,,,,,,,,,,,,,,,,,,,,,,,,,,,,,,,,,,,,,,,,,,,,,,None, nettle,"['n', 'e', 't', 't', 'l', 'e', 'return']","[0.3389587000128813, 0.6829240000224672, 0.9070939000230283, 1.0350090999854729, 1.4588831000146456, 1.6268548999796622, 1.9789400000008754]",,,,,,,,,,,,,,,,,,,,,,,,,,,,,,,,,,,,22,001,C,2023_Feb_15_1045,student_TT_local,2021.1.4,48.06035611618135,
,None,None,None,None,None,None,None,None,None,None,ethnic,botany,6.5,7.5,video&audio/fodder_TT_3X.mp4,video&audio/sentence4_TT_3X.mp4,fodder,trench,None,,,,,,,,,,,0,21,21,27,,,,,,,,,,,,,,,,,,,,,,,,,,,,,,,,,,,,,,,,,,,,,,,,,,,,,,,,None, ethnic,"['e', 't', 'n', 'i', 'c', 'return']","[0.4253418000298552, 0.6816249000257812, 1.2817358000320382, 1.4734392000245862, 1.8254436000133865, 2.3133955000084825]",,,,,,,,,,,,,,,,,,,,,,,,,,,,,,,,,,,,22,001,C,2023_Feb_15_1045,student_TT_local,2021.1.4,48.06035611618135,
,None,None,None,None,None,None,None,None,None,None,defame,covert,19.5,20.5,video&audio/binder_touch_edited.mp4,video&audio/Sentence6_touch_edited.mp4,binder,patent,None,,,,,,,,,,,0,22,22,11,,,,,,,,,,,,,,,,,,,,,,,,,,,,,,,,,,,,,,,,,,,,,,,,,,,,,,,,None, defame,"['d', 'e', 'f', 'a', 'm', 'e', 'return']","[0.595667699992191, 0.8115452000056393, 1.1235771999927238, 1.4442833999637514, 1.7075767999631353, 1.9636400999734178, 2.227957699971739]",,,,,,,,,,,,,,,,,,,,,,,,,,,,,,,,,,,,22,001,C,2023_Feb_15_1045,student_TT_local,2021.1.4,48.06035611618135,
,None,None,None,None,None,None,None,None,None,None,ration,solemn,19.5,20.5,video&audio/goblet_touch_edited.mp4,video&audio/Sentence3_touch_edited.mp4,goblet,befall,None,,,,,,,,,,,0,23,23,8,,,,,,,,,,,,,,,,,,,,,,,,,,,,,,,,,,,,,,,,,,,,,,,,,,,,,,,,None, ration,"['r', 'a', 't', 'i', 'o', 'n', 'return']","[0.8771896999678575, 1.0135047999792732, 1.117248099995777, 1.4933741000131704, 1.6372531999950297, 1.773304799979087, 2.0775599000044167]",,,,,,,,,,,,,,,,,,,,,,,,,,,,,,,,,,,,22,001,C,2023_Feb_15_1045,student_TT_local,2021.1.4,48.06035611618135,
,None,None,None,None,None,None,None,None,None,None,uphold,debtor,6.5,7.5,video&audio/convoy_TT_3X.mp4,video&audio/sentence1_TT_3X.mp4,convoy,output,None,,,,,,,,,,,0,24,24,18,,,,,,,,,,,,,,,,,,,,,,,,,,,,,,,,,,,,,,,,,,,,,,,,,,,,,,,,None, uphold,"['u', 'p', 'h', 'o', 'l', 'd', 'return']","[0.6578931999974884, 1.1295106000034139, 1.4578043000074103, 1.6816547000198625, 1.8497174000367522, 2.0255735000246204, 2.3300391000229865]",,,,,,,,,,,,,,,,,,,,,,,,,,,,,,,,,,,,22,001,C,2023_Feb_15_1045,student_TT_local,2021.1.4,48.06035611618135,
,None,None,None,None,None,None,None,None,None,None,shrill,piston,6.5,7.5,video&audio/pursue_TT_3X.mp4,video&audio/sentence3_TT_3X.mp4,pursue,caviar,None,,,,,,,,,,,0,25,25,20,,,,,,,,,,,,,,,,,,,,,,,,,,,,,,,,,,,,,,,,,,,,,,,,,,,,,,,,None, shrill,"['s', 'h', 'r', 'i', 'l', 'l', 'return']","[0.41050860000541434, 0.7227332000038587, 0.914889800013043, 1.1304946999880485, 1.3312288000015542, 1.442518999974709, 1.6904770999681205]",,,,,,,,,,,,,,,,,,,,,,,,,,,,,,,,,,,,22,001,C,2023_Feb_15_1045,student_TT_local,2021.1.4,48.06035611618135,
,None,None,None,None,None,None,None,None,None,None,origin,falter,6.5,7.5,video&audio/potent_TT_3X.mp4,video&audio/sentence4_TT_3X.mp4,potent,tandem,None,,,,,,,,,,,0,26,26,15,,,,,,,,,,,,,,,,,,,,,,,,,,,,,,,,,,,,,,,,,,,,,,,,,,,,,,,,None, orifin,"['o', 'r', 'i', 'f', 'i', 'n', 'return']","[1.0536240999936126, 1.413666300009936, 1.6530455999891274, 1.8455405000131577, 2.101564700016752, 2.317099599982612, 3.5251197000034153]",,,,,,,,,,,,,,,,,,,,,,,,,,,,,,,,,,,,22,001,C,2023_Feb_15_1045,student_TT_local,2021.1.4,48.06035611618135,
,"While you watch the video, imagine yourself typing the word on the screen, like how you did in the imagery practice. While you watch the video and imagine this, rest your hands on your keyboard but DO NOT type until AFTER you see the typing prompt.

Press 'enter/return' to go to the next page.","While watching the video, imagine yourself typing the word on the screen, like how you did in the imagery practice. While you watch the video and imagine this, rest your hands on your keyboard but DO NOT type until AFTER you see the typing prompt.

Press 'enter/return' to go to the next page.",video&audio/Example_AOMI_imagine.png,1.6,1,butter,6.5,7.5,video&audio/butter_TT_3X.mp4,video&audio/amount_TT_3X.mp4,eatery,ascend,19.5,20.5,video&audio/plight_touch_edited.mp4,video&audio/Sentence2_touch_edited.mp4,plight,metric,2 = AOMIgen,,,,,,,,,,,0,27,27,1,,,,,,,,,,,,,,,,,,,,,,,,,,,,,,,,,,,,,,,,,,,,,,,,,,,,,,,,None, eatery,"['e', 'a', 't', 'e', 'r', 'y', 'return']","[0.919608399970457, 1.2482930999831297, 1.5598518999759108, 1.8155828999588266, 2.040279799955897, 2.2316075999988243, 3.3040956999757327]",,,,,,,,,,,,,,,,,,,,,,,,,,,,,,,,,,,,22,001,C,2023_Feb_15_1045,student_TT_local,2021.1.4,48.06035611618135,
,"Remember to type as QUICKLY and ACCURATELY as possible after the 'get ready' prompt.

Ask the experimenter any questions now. Please put on the headphones.

You will get one practice trial. Press 'enter/return' when you are ready to start the practice.","Remember to type as QUICKLY and ACCURATELY as you can after the 'get ready' prompt.

Ask the experimenter any questions now. Please put on the headphones.

You will get one practice trial. Press 'enter/return' when you are ready to start the practice.",video&audio/Example_AOMI_total.png,1.8,0.7,None,None,None,None,None,ghetto,frugal,19.5,20.5,video&audio/jargon_touch_edited.mp4,video&audio/Sentence3_touch_edited.mp4,jargon,oppose,None,,,,,,,,,,,0,28,28,2,,,,,,,,,,,,,,,,,,,,,,,,,,,,,,,,,,,,,,,,,,,,,,,,,,,,,,,,None, ghetto,"['g', 'h', 'e', 't', 't', 'o', 'return']","[0.7735538000124507, 0.92651040002238, 1.181833699985873, 1.4065228999825194, 1.5097719000186771, 1.8857710000011139, 2.59765900002094]",,,,,,,,,,,,,,,,,,,,,,,,,,,,,,,,,,,,22,001,C,2023_Feb_15_1045,student_TT_local,2021.1.4,48.06035611618135,
,None,None,None,None,None,None,None,None,None,None,allure,forage,6.5,7.5,video&audio/legion_TT_3X.mp4,video&audio/sentence6_TT_3X.mp4,legion,campus,None,,,,,,,,,,,0,29,29,29,,,,,,,,,,,,,,,,,,,,,,,,,,,,,,,,,,,,,,,,,,,,,,,,,,,,,,,,None, allure,"['a', 'l', 'l', 'u', 'r', 'e', 'return']","[1.7917484000208788, 2.263878299971111, 2.3921577999717556, 2.6161871000076644, 2.8723810000228696, 3.0397710999823175, 3.3041967999888584]",,,,,,,,,,,,,,,,,,,,,,,,,,,,,,,,,,,,22,001,C,2023_Feb_15_1045,student_TT_local,2021.1.4,48.06035611618135,
,,,,,,,,,,,,,,,,,,,,typingRatingScale.png,"How would you rate your typing performance in the previous section?

Press a number on your keyboard according to the rating scale below to give your answer. Your first answer will be accepted.",,,,,,,,,,,,,0,0,0,0,,,,,,,,,,,,,,,,,,,,,,,,,,,,,,,,,,,,,,,,,,,,,,,,,,,,,,,,,['4'],[20.085368899977766],,,,,,,,,,,,,,,,,,,,,,,,,,,,,,,,,22,001,C,2023_Feb_15_1045,student_TT_local,2021.1.4,48.06035611618135,
,,,,,,,,,,,,,,,,,,,,imageryCheckScale.png,"In the previous section did you imagine yourself typing?

Press a number on your keyboard according to the rating scale below to give your answer. Your first answer will be accepted.",,,,,,,,,,,,,0,1,1,1,,,,,,,,,,,,,,,,,,,,,,,,,,,,,,,,,,,,,,,,,,,,,,,,,,,,,,,,,['3'],[13.573060299968347],,,,,,,,,,,,,,,,,,,,,,,,,,,,,,,,,22,001,C,2023_Feb_15_1045,student_TT_local,2021.1.4,48.06035611618135,
,None,None,None,None,None,None,None,None,None,None,shroud,jackal,19.5,20.5,video&audio/parole_touch_edited.mp4,video&audio/Sentence4_touch_edited.mp4,parole,hamlet,None,,,,,,,,,,,,,,,,,,,,,,,,,,,0,0,0,9,,,,,,,,,,,,,,,,,,,,,,,,,,,,,,,,,,,,,,,,,,,,,,,None,None,"['b', 'u', 'u', 'backspace', 't', 't', 'e', 'r', 'return']","[0.7785649000434205, 1.0822143999976106, 1.226618700020481, 2.2182323000160977, 2.802234100003261, 2.914717100036796, 3.0342816000338644, 3.2102141000214033, 3.8107446000212803]",None, parole,"['p', 'a', 'r', 'o', 'l', 'e', 'return']","[0.430637699959334, 0.726955599966459, 1.1986843000049703, 1.3986976000014693, 1.5910017999703996, 1.7588531999499537, 2.414507799956482]",,,,,,,,,,,,,,,,,,,,,,,,,22,001,C,2023_Feb_15_1045,student_TT_local,2021.1.4,48.06035611618135,
,None,None,None,None,None,None,None,None,None,None,mucous,subtle,6.5,7.5,video&audio/brazen_TT_3X.mp4,video&audio/sentence5_TT_3X.mp4,brazen,fungal,None,,,,,,,,,,,,,,,,,,,,,,,,,,,0,1,1,22,,,,,,,,,,,,,,,,,,,,,,,,,,,,,,,,,,,,,,,,,,,,,,,,None,,,None, brazen,"['b', 'r', 'a', 'z', 'e', 'n', 'return']","[0.6044249000260606, 0.900474900030531, 1.2844615000067279, 1.5723747000447474, 1.8285396000137553, 2.0527985999942757, 2.653255100012757]",,,,,,,,,,,,,,,,,,,,,,,,,22,001,C,2023_Feb_15_1045,student_TT_local,2021.1.4,48.06035611618135,
,None,None,None,None,None,None,None,None,None,None,mystic,pulpit,19.5,20.5,video&audio/infirm_touch_edited.mp4,video&audio/Sentence4_touch_edited.mp4,infirm,oblige,None,,,,,,,,,,,,,,,,,,,,,,,,,,,0,2,2,3,,,,,,,,,,,,,,,,,,,,,,,,,,,,,,,,,,,,,,,,,,,,,,,,None,,,None, infirm,"['i', 'n', 'f', 'i', 'r', 'm']","[0.6724129000212997, 1.06440069997916, 1.3044596000108868, 1.4725056000170298, 1.6724349000141956, 1.8248395000118762]",,,,,,,,,,,,,,,,,,,,,,,,,22,001,C,2023_Feb_15_1045,student_TT_local,2021.1.4,48.06035611618135,
,None,None,None,None,None,None,None,None,None,None,gullet,picket,6.5,7.5,video&audio/upkeep_TT_3X.mp4,video&audio/sentence5_TT_3X.mp4,upkeep,parish,None,,,,,,,,,,,,,,,,,,,,,,,,,,,0,3,3,28,,,,,,,,,,,,,,,,,,,,,,,,,,,,,,,,,,,,,,,,,,,,,,,,None,,,None, upkeep,"['u', 'p', 'k', 'e', 'e', 'p', 'return']","[0.43024630000581965, 1.1028558000107296, 1.3902350999996997, 1.5661531999940053, 1.9105543000041507, 2.142491600010544, 2.470322099979967]",,,,,,,,,,,,,,,,,,,,,,,,,22,001,C,2023_Feb_15_1045,student_TT_local,2021.1.4,48.06035611618135,
,None,None,None,None,None,None,None,None,None,None,linear,belfry,6.5,7.5,video&audio/manure_TT_3X.mp4,video&audio/sentence6_TT_3X.mp4,manure,girdle,None,,,,,,,,,,,,,,,,,,,,,,,,,,,0,4,4,23,,,,,,,,,,,,,,,,,,,,,,,,,,,,,,,,,,,,,,,,,,,,,,,,None,,,None, manure,"['comma', 'a', 'n', 'u', 'r', 'backspace', 'backspace', 'backspace', 'backspace', 'backspace', 'm', 'a', 'n', 'u', 'r', 'e', 'return']","[0.44718790001934394, 0.7830967000336386, 0.9912289000349119, 1.2310239000362344, 1.5830415000091307, 2.831164599978365, 3.007654300017748, 3.183256899996195, 3.3432693000067957, 3.5029853000305593, 4.207086200010963, 4.487623299995903, 4.687096200010274, 4.927441700012423, 5.230895499989856, 5.342918500013184, 5.991124199994374]",,,,,,,,,,,,,,,,,,,,,,,,,22,001,C,2023_Feb_15_1045,student_TT_local,2021.1.4,48.06035611618135,
,None,None,None,None,None,None,None,None,None,None,portal,ritual,6.5,7.5,video&audio/coerce_TT_3X.mp4,video&audio/sentence6_TT_3X.mp4,coerce,clergy,None,,,,,,,,,,,,,,,,,,,,,,,,,,,0,5,5,17,,,,,,,,,,,,,,,,,,,,,,,,,,,,,,,,,,,,,,,,,,,,,,,,None,,,None, coerce,"['c', 'o', 'e', 'r', 'c', 'e', 'return']","[0.5353210999746807, 0.919186000013724, 2.01539249997586, 2.271178799972404, 2.5592338999849744, 2.7833754000021145, 3.503301399992779]",,,,,,,,,,,,,,,,,,,,,,,,,22,001,C,2023_Feb_15_1045,student_TT_local,2021.1.4,48.06035611618135,
,None,None,None,None,None,None,None,None,None,None,shrill,piston,6.5,7.5,video&audio/pursue_TT_3X.mp4,video&audio/sentence3_TT_3X.mp4,pursue,caviar,None,,,,,,,,,,,,,,,,,,,,,,,,,,,0,6,6,20,,,,,,,,,,,,,,,,,,,,,,,,,,,,,,,,,,,,,,,,,,,,,,,,['p'],,,None, pursue,"['p', 'u', 'r', 's', 'u', 'e', 'return']","[0.4074218000168912, 0.9514543999684975, 1.2396073999698274, 1.5432948999805376, 1.7433144999668002, 1.9117848000023514, 2.551536599989049]",[0.43533589999424294],,,,,,,,,,,,,,,,,,,,,,,,22,001,C,2023_Feb_15_1045,student_TT_local,2021.1.4,48.06035611618135,
,None,None,None,None,None,None,None,None,None,None,ration,solemn,19.5,20.5,video&audio/goblet_touch_edited.mp4,video&audio/Sentence3_touch_edited.mp4,goblet,befall,None,,,,,,,,,,,,,,,,,,,,,,,,,,,0,7,7,8,,,,,,,,,,,,,,,,,,,,,,,,,,,,,,,,,,,,,,,,,,,,,,,,None,,,None, goblet,"['g', 'o', 'b', 'l', 'e', 't', 'return']","[0.992250100011006, 1.328309000004083, 1.576420400000643, 1.7763726999983191, 2.0242617000476457, 2.37620280002011, 3.104280400031712]",,,,,,,,,,,,,,,,,,,,,,,,,22,001,C,2023_Feb_15_1045,student_TT_local,2021.1.4,48.06035611618135,
,None,None,None,None,None,None,None,None,None,None,defame,covert,19.5,20.5,video&audio/binder_touch_edited.mp4,video&audio/Sentence6_touch_edited.mp4,binder,patent,None,,,,,,,,,,,,,,,,,,,,,,,,,,,0,8,8,11,,,,,,,,,,,,,,,,,,,,,,,,,,,,,,,,,,,,,,,,,,,,,,,,['b'],,,None, binder,"['b', 'i', 'n', 'd', 'e', 'r', 'return']","[0.4568876000121236, 1.0569408999872394, 1.2969404999748804, 1.5850619999691844, 1.8094112999970093, 2.0248662999947555, 2.321242499980144]",[0.6903234999626875],,,,,,,,,,,,,,,,,,,,,,,,22,001,C,2023_Feb_15_1045,student_TT_local,2021.1.4,48.06035611618135,
,"Remember to type as QUICKLY and ACCURATELY as possible after the 'get ready' prompt.

Ask the experimenter any questions now. Please put on the headphones.

You will get one practice trial. Press 'enter/return' when you are ready to start the practice.","Remember to type as QUICKLY and ACCURATELY as you can after the 'get ready' prompt.

Ask the experimenter any questions now. Please put on the headphones.

You will get one practice trial. Press 'enter/return' when you are ready to start the practice.",video&audio/Example_AOMI_total.png,1.8,0.7,None,None,None,None,None,ghetto,frugal,19.5,20.5,video&audio/jargon_touch_edited.mp4,video&audio/Sentence3_touch_edited.mp4,jargon,oppose,None,,,,,,,,,,,,,,,,,,,,,,,,,,,0,9,9,2,,,,,,,,,,,,,,,,,,,,,,,,,,,,,,,,,,,,,,,,,,,,,,,,"['j', 'a']",,,None, jargon,"['j', 'a', 'r', 'g', 'o', 'n', 'return']","[0.4127248000004329, 0.6938732999842614, 1.364803700009361, 1.6287276999792084, 1.828961299965158, 2.0691115999943577, 2.6769525000127032]","[0.07597409997833893, 0.34000149997882545]",,,,,,,,,,,,,,,,,,,,,,,,22,001,C,2023_Feb_15_1045,student_TT_local,2021.1.4,48.06035611618135,
,None,None,None,None,None,None,None,None,None,None,matron,subdue,6.5,7.5,video&audio/impose_TT_3X.mp4,video&audio/sentence3_TT_3X.mp4,impose,feudal,None,,,,,,,,,,,,,,,,,,,,,,,,,,,0,10,10,26,,,,,,,,,,,,,,,,,,,,,,,,,,,,,,,,,,,,,,,,,,,,,,,,None,,,None, impose,"['i', 'm', 'p', 'o', 's', 'e', 'return']","[0.7566324999788776, 1.1959228999912739, 1.4998896999750286, 1.7164100999943912, 1.9243599000037648, 2.139935899991542, 2.8200314000132494]",,,,,,,,,,,,,,,,,,,,,,,,,22,001,C,2023_Feb_15_1045,student_TT_local,2021.1.4,48.06035611618135,
,None,None,None,None,None,None,None,None,None,None,herbal,hippie,19.5,20.5,video&audio/sonnet_touch_edited.mp4,video&audio/Sentence3_touch_edited.mp4,sonnet,hearth,None,,,,,,,,,,,,,,,,,,,,,,,,,,,0,11,11,14,,,,,,,,,,,,,,,,,,,,,,,,,,,,,,,,,,,,,,,,,,,,,,,,None,,,None, sonnet,"['s', 'o', 'n', 'n', 'e', 't', 'return']","[0.5093684000312351, 1.4053502000169829, 1.9734625000273809, 2.10174630000256, 2.261463000031654, 2.981385799997952, 3.581996400025673]",,,,,,,,,,,,,,,,,,,,,,,,,22,001,C,2023_Feb_15_1045,student_TT_local,2021.1.4,48.06035611618135,
,None,None,None,None,None,None,None,None,None,None,revoke,malady,19.5,20.5,video&audio/mirage_touch_edited.mp4,video&audio/Sentence1_touch_edited.mp4,mirage,shrewd,None,,,,,,,,,,,,,,,,,,,,,,,,,,,0,12,12,6,,,,,,,,,,,,,,,,,,,,,,,,,,,,,,,,,,,,,,,,,,,,,,,,None,,,None, mirage,"['m', 'i', 'r', 'a', 'g', 'e', 'return']","[0.8804752000141889, 1.2570383000420406, 1.60072400001809, 1.728447400033474, 1.912409100041259, 2.040388800029177, 2.6726244000019506]",,,,,,,,,,,,,,,,,,,,,,,,,22,001,C,2023_Feb_15_1045,student_TT_local,2021.1.4,48.06035611618135,
,None,None,None,None,None,None,None,None,None,None,apathy,virile,19.5,20.5,video&audio/revolt_touch_edited.mp4,video&audio/Sentence6_touch_edited.mp4,revolt,joiner,None,,,,,,,,,,,,,,,,,,,,,,,,,,,0,13,13,5,,,,,,,,,,,,,,,,,,,,,,,,,,,,,,,,,,,,,,,,,,,,,,,,None,,,None, revolt,"['r', 'e', 'v', 'o', 'l', 't', 'return']","[0.5309007000178099, 0.9068876000237651, 1.2107039000256918, 1.379197700007353, 1.5788352999952622, 1.7708626000094227, 2.21911760000512]",,,,,,,,,,,,,,,,,,,,,,,,,22,001,C,2023_Feb_15_1045,student_TT_local,2021.1.4,48.06035611618135,
,None,None,None,None,None,None,None,None,None,None,tamper,confer,19.5,20.5,video&audio/critic_touch_edited.mp4,video&audio/Sentence1_touch_edited.mp4,critic,innate,None,,,,,,,,,,,,,,,,,,,,,,,,,,,0,14,14,12,,,,,,,,,,,,,,,,,,,,,,,,,,,,,,,,,,,,,,,,,,,,,,,,None,,,None, critic,"['c', 'r', 'i', 't', 'i', 'c', 'return']","[0.6859008999890648, 1.1018809999804944, 1.3741865999763831, 1.4934957000077702, 1.6377407999825664, 1.8694021999835968, 2.309630299976561]",,,,,,,,,,,,,,,,,,,,,,,,,22,001,C,2023_Feb_15_1045,student_TT_local,2021.1.4,48.06035611618135,
,None,None,None,None,None,None,None,None,None,None,origin,falter,6.5,7.5,video&audio/potent_TT_3X.mp4,video&audio/sentence4_TT_3X.mp4,potent,tandem,None,,,,,,,,,,,,,,,,,,,,,,,,,,,0,15,15,15,,,,,,,,,,,,,,,,,,,,,,,,,,,,,,,,,,,,,,,,,,,,,,,,None,,,None, potent,"['p', 'o', 't', 'e', 'n', 't', 'return']","[0.7934880999964662, 1.001300000003539, 1.32156730000861, 1.5533213000162505, 2.025062600034289, 2.2814388999831863, 2.7051180999842472]",,,,,,,,,,,,,,,,,,,,,,,,,22,001,C,2023_Feb_15_1045,student_TT_local,2021.1.4,48.06035611618135,
,None,None,None,None,None,None,None,None,None,None,uphold,debtor,6.5,7.5,video&audio/convoy_TT_3X.mp4,video&audio/sentence1_TT_3X.mp4,convoy,output,None,,,,,,,,,,,,,,,,,,,,,,,,,,,0,16,16,18,,,,,,,,,,,,,,,,,,,,,,,,,,,,,,,,,,,,,,,,,,,,,,,,None,,,None, convoy,"['c', 'o', 'n', 'v', 'o', 'y', 'return']","[0.474464800034184, 0.8424392000306398, 1.114446300023701, 1.4823872999986634, 1.6824545999988914, 1.9464141000062227, 2.154760300007183]",,,,,,,,,,,,,,,,,,,,,,,,,22,001,C,2023_Feb_15_1045,student_TT_local,2021.1.4,48.06035611618135,
,None,None,None,None,None,None,None,None,None,None,export,cervix,6.5,7.5,video&audio/murmur_TT_3X.mp4,video&audio/sentence2_TT_3X.mp4,murmur,cobble,None,,,,,,,,,,,,,,,,,,,,,,,,,,,0,17,17,19,,,,,,,,,,,,,,,,,,,,,,,,,,,,,,,,,,,,,,,,,,,,,,,,None,,,None, murmur,"['m', 'u', 'r', 'm', 'u', 'r', 'return']","[0.5330706000095233, 0.9089103000005707, 1.1409515000414103, 1.2848176000406966, 1.5410548000363633, 1.7648739000433125, 2.133100600040052]",,,,,,,,,,,,,,,,,,,,,,,,,22,001,C,2023_Feb_15_1045,student_TT_local,2021.1.4,48.06035611618135,
,None,None,None,None,None,None,None,None,None,None,fusion,obsess,19.5,20.5,video&audio/sherry_touch_edited.mp4,video&audio/Sentence5_touch_edited.mp4,sherry,zephyr,None,,,,,,,,,,,,,,,,,,,,,,,,,,,0,18,18,10,,,,,,,,,,,,,,,,,,,,,,,,,,,,,,,,,,,,,,,,,,,,,,,,None,,,None, sherry,"['s', 'h', 'e', 'r', 'r', 'y', 'return']","[0.3986779999686405, 0.7347817999543622, 1.0790056999539956, 1.3349460999597795, 1.4709255999769084, 1.5828761999728158, 2.11159059999045]",,,,,,,,,,,,,,,,,,,,,,,,,22,001,C,2023_Feb_15_1045,student_TT_local,2021.1.4,48.06035611618135,
,"While you watch the video, imagine yourself typing the word on the screen, like how you did in the imagery practice. While you watch the video and imagine this, rest your hands on your keyboard but DO NOT type until AFTER you see the typing prompt.

Press 'enter/return' to go to the next page.","While watching the video, imagine yourself typing the word on the screen, like how you did in the imagery practice. While you watch the video and imagine this, rest your hands on your keyboard but DO NOT type until AFTER you see the typing prompt.

Press 'enter/return' to go to the next page.",video&audio/Example_AOMI_imagine.png,1.6,1,butter,6.5,7.5,video&audio/butter_TT_3X.mp4,video&audio/amount_TT_3X.mp4,eatery,ascend,19.5,20.5,video&audio/plight_touch_edited.mp4,video&audio/Sentence2_touch_edited.mp4,plight,metric,2 = AOMIgen,,,,,,,,,,,,,,,,,,,,,,,,,,,0,19,19,1,,,,,,,,,,,,,,,,,,,,,,,,,,,,,,,,,,,,,,,,,,,,,,,,None,,,None, plight,"['p', 'l', 'i', 'g', 'h', 't', 'return']","[0.7866741999750957, 1.0747351999743842, 1.3545913999550976, 1.5629208000027575, 1.6987001999514177, 1.802972299978137, 2.058944199990947]",,,,,,,,,,,,,,,,,,,,,,,,,22,001,C,2023_Feb_15_1045,student_TT_local,2021.1.4,48.06035611618135,
,None,None,None,None,None,None,None,None,None,None,galley,tariff,19.5,20.5,video&audio/strife_touch_edited.mp4,video&audio/Sentence2_touch_edited.mp4,strife,delude,None,,,,,,,,,,,,,,,,,,,,,,,,,,,0,20,20,7,,,,,,,,,,,,,,,,,,,,,,,,,,,,,,,,,,,,,,,,,,,,,,,,['s'],,,None, strife,"['s', 't', 'i', 'backspace', 'r', 'i', 'f', 'e', 'return']","[0.4762546000420116, 0.9241391000105068, 1.1161906000343151, 1.8208008000510745, 2.0122884000302292, 2.6200229000533, 2.908393800025806, 3.1002258000080474, 3.412086200027261]",[0.15635510004358366],,,,,,,,,,,,,,,,,,,,,,,,22,001,C,2023_Feb_15_1045,student_TT_local,2021.1.4,48.06035611618135,
,"This is Section 2.

In this section, your task will be the same as before - that is, to type the word you see on the screen after the typing prompt. However, rather than just seeing the word before typing, you will also see a video of someone typing the same word you will need to type at various speeds. 

Press 'enter/return' to go to the next page.","This is Section 4. 

In this section, your task will be the same as before - that is, to type the word you see on the screen after the typing prompt. You will see a video again, like in Section 2, only this time, the video will show someone typing different words to what you must type at various speeds. 

Press 'enter/return' to go to the next page.",video&audio/Example_AOMI_layout.png,1.6,0.6,afford,19.5,20.5,video&audio/afford_touch_edited.mp4,video&audio/amount_touch_edited.mp4,breach,matrix,19.5,20.5,video&audio/vanity_touch_edited.mp4,video&audio/Sentence1_touch_edited.mp4,vanity,hinder,1 = AOMIspec,,,,,,,,,,,,,,,,,,,,,,,,,,,0,21,21,0,,,,,,,,,,,,,,,,,,,,,,,,,,,,,,,,,,,,,,,,,,,,,,,,None,,,None, vanity,"['v', 'a', 'n', 'i', 't', 'y', 'return']","[0.6937255000229925, 0.9253119000350125, 1.3336524000042118, 1.5652278000488877, 1.8306147000403143, 2.0452175000100397, 2.33335430000443]",,,,,,,,,,,,,,,,,,,,,,,,,22,001,C,2023_Feb_15_1045,student_TT_local,2021.1.4,48.06035611618135,
,None,None,None,None,None,None,None,None,None,None,nettle,plasma,6.5,7.5,video&audio/deduct_TT_3X.mp4,video&audio/sentence5_TT_3X.mp4,deduct,jailer,None,,,,,,,,,,,,,,,,,,,,,,,,,,,0,22,22,16,,,,,,,,,,,,,,,,,,,,,,,,,,,,,,,,,,,,,,,,,,,,,,,,None,,,None, deduct,"['d', 'e', 'd', 'u', 'c', 't', 'return']","[0.7971127000055276, 1.1010951999924146, 1.3412672999547794, 1.5334012999664992, 1.6931285999598913, 1.8690364999929443, 2.300967499963008]",,,,,,,,,,,,,,,,,,,,,,,,,22,001,C,2023_Feb_15_1045,student_TT_local,2021.1.4,48.06035611618135,
,None,None,None,None,None,None,None,None,None,None,entail,parcel,19.5,20.5,video&audio/novice_touch_edited.mp4,video&audio/Sentence5_touch_edited.mp4,novice,primal,None,,,,,,,,,,,,,,,,,,,,,,,,,,,0,23,23,4,,,,,,,,,,,,,,,,,,,,,,,,,,,,,,,,,,,,,,,,,,,,,,,,None,,,None, novice,"['n', 'o', 'v', 'i', 'c', 'e', 'return']","[0.4313082000007853, 1.4237241999944672, 1.6633119999896735, 1.8401128000114113, 2.37550820002798, 2.6072142000193708, 3.279623000009451]",,,,,,,,,,,,,,,,,,,,,,,,,22,001,C,2023_Feb_15_1045,student_TT_local,2021.1.4,48.06035611618135,
,None,None,None,None,None,None,None,None,None,None,divert,kipper,6.5,7.5,video&audio/musket_TT_3X.mp4,video&audio/sentence2_TT_3X.mp4,musket,meddle,None,,,,,,,,,,,,,,,,,,,,,,,,,,,0,24,24,25,,,,,,,,,,,,,,,,,,,,,,,,,,,,,,,,,,,,,,,,,,,,,,,,None,,,None, musket,"['m', 'u', 's', 'k', 'e', 't', 'return']","[0.5484668999561109, 0.8607854999718256, 1.0684344999608584, 1.2368407999747433, 1.3964274999452755, 1.5807671999791637, 2.4202812999719754]",,,,,,,,,,,,,,,,,,,,,,,,,22,001,C,2023_Feb_15_1045,student_TT_local,2021.1.4,48.06035611618135,
,None,None,None,None,None,None,None,None,None,None,ordain,neural,19.5,20.5,video&audio/quarry_touch_edited.mp4,video&audio/Sentence2_touch_edited.mp4,quarry,septic,None,,,,,,,,,,,,,,,,,,,,,,,,,,,0,25,25,13,,,,,,,,,,,,,,,,,,,,,,,,,,,,,,,,,,,,,,,,,,,,,,,,None,,,None, quarry,"['q', 'u', 'a', 'r', 'r', 'y', 'return']","[0.7853510999702848, 0.9855399999651127, 1.1856269999989308, 1.425299199996516, 1.5297136000008322, 1.7696497999713756, 2.6173316999920644]",,,,,,,,,,,,,,,,,,,,,,,,,22,001,C,2023_Feb_15_1045,student_TT_local,2021.1.4,48.06035611618135,
,None,None,None,None,None,None,None,None,None,None,mussel,cortex,6.5,7.5,video&audio/savant_TT_3X.mp4,video&audio/sentence4_TT_3X.mp4,savant,induce,None,,,,,,,,,,,,,,,,,,,,,,,,,,,0,26,26,21,,,,,,,,,,,,,,,,,,,,,,,,,,,,,,,,,,,,,,,,,,,,,,,,None,,,None, savant,"['s', 'a', 'v', 'a', 'n', 't', 'return']","[0.9674746000091545, 1.2556773999822326, 1.4079279999714345, 1.5275796999922022, 1.671484499995131, 1.8316688999766484, 2.567685599962715]",,,,,,,,,,,,,,,,,,,,,,,,,22,001,C,2023_Feb_15_1045,student_TT_local,2021.1.4,48.06035611618135,
,None,None,None,None,None,None,None,None,None,None,ethnic,botany,6.5,7.5,video&audio/fodder_TT_3X.mp4,video&audio/sentence4_TT_3X.mp4,fodder,trench,None,,,,,,,,,,,,,,,,,,,,,,,,,,,0,27,27,27,,,,,,,,,,,,,,,,,,,,,,,,,,,,,,,,,,,,,,,,,,,,,,,,None,,,None, fodder,"['f', 'o', 'd', 'd', 'e', 'r', 'return']","[0.7851236000424251, 1.041201300045941, 1.425896200002171, 1.5772062000469305, 1.7776668000151403, 1.961030500009656, 2.5451514000305906]",,,,,,,,,,,,,,,,,,,,,,,,,22,001,C,2023_Feb_15_1045,student_TT_local,2021.1.4,48.06035611618135,
,None,None,None,None,None,None,None,None,None,None,warble,devise,6.5,7.5,video&audio/satire_TT_3X.mp4,video&audio/sentence1_TT_3X.mp4,satire,mangle,None,,,,,,,,,,,,,,,,,,,,,,,,,,,0,28,28,24,,,,,,,,,,,,,,,,,,,,,,,,,,,,,,,,,,,,,,,,,,,,,,,,None,,,None, satire,"['s', 'a', 't', 'i', 'r', 'e', 'return']","[0.6199555000057444, 0.8680542000220157, 1.1959952000179328, 1.395964700030163, 1.6524509000009857, 1.8441062000347301, 2.452107699995395]",,,,,,,,,,,,,,,,,,,,,,,,,22,001,C,2023_Feb_15_1045,student_TT_local,2021.1.4,48.06035611618135,
,None,None,None,None,None,None,None,None,None,None,allure,forage,6.5,7.5,video&audio/legion_TT_3X.mp4,video&audio/sentence6_TT_3X.mp4,legion,campus,None,,,,,,,,,,,,,,,,,,,,,,,,,,,0,29,29,29,,,,,,,,,,,,,,,,,,,,,,,,,,,,,,,,,,,,,,,,,,,,,,,,None,,,None, legion,"['l', 'e', 'g', 'o', 'backspace', 'i', 'o', 'n', 'return']","[0.8037197000230663, 1.0034877000143752, 1.2755467999959365, 1.5956779000116512, 2.4755626000114717, 2.7954251000192016, 2.9477678000112064, 3.0837394999689423, 3.787601899995934]",,,,,,,,,,,,,,,,,,,,,,,,,22,001,C,2023_Feb_15_1045,student_TT_local,2021.1.4,48.06035611618135,
,,,,,,,,,,,,,,,,,,,,typingRatingScale.png,"How would you rate your typing performance in the previous section?

Press a number on your keyboard according to the rating scale below to give your answer. Your first answer will be accepted.",,,,,,,,,,,,,,,,,,,,,,,,,,,,,0,0,0,0,,,,,,,,,,,,,,,,,,,,,,,,,,,,,,,,,,,,,,,,,,,,,,,,,,,,['4'],[12.21898099995451],,,,,,,,,,,,,,,,,,,,,,22,001,C,2023_Feb_15_1045,student_TT_local,2021.1.4,48.06035611618135,
,,,,,,,,,,,,,,,,,,,,visualImageryScale.png,"While imagining yourself typing, how clear was your visual image?

Press a number on your keyboard according to the rating scale below to give your answer. Your first answer will be accepted.",,,,,,,,,,,,,,,,,,,,,,,,,,,,,0,1,1,1,,,,,,,,,,,,,,,,,,,,,,,,,,,,,,,,,,,,,,,,,,,,,,,,,,,,['4'],[9.029114799981471],,,,,,,,,,,,,,,,,,,,,,22,001,C,2023_Feb_15_1045,student_TT_local,2021.1.4,48.06035611618135,
,,,,,,,,,,,,,,,,,,,,kinestheticImageryScale.png,"While imagining yourself typing, how intense were the sensations associated with the imagined movement?

Press a number on your keyboard according to the rating scale below to give your answer. Your first answer will be accepted.",,,,,,,,,,,,,,,,,,,,,,,,,,,,,0,2,2,2,,,,,,,,,,,,,,,,,,,,,,,,,,,,,,,,,,,,,,,,,,,,,,,,,,,,['3'],[8.277228599996306],,,,,,,,,,,,,,,,,,,,,,22,001,C,2023_Feb_15_1045,student_TT_local,2021.1.4,48.06035611618135,
,None,None,None,None,None,None,None,None,None,None,tamper,confer,19.5,20.5,video&audio/critic_touch_edited.mp4,video&audio/Sentence1_touch_edited.mp4,critic,innate,None,,,,,,,,,,,,,,,,,,,,,,,,,,,,,,,,,,,,,,,,,,,0,0,0,12,,,,,,,,,,,,,,,,,,,,,,,,,,,,,,,,,,,,,,,,,,3117.079783399997,3123.5966429000255,None, butter,"['b', 'u', 't', 't', 'e', 'r', 'return']","[0.7107030999613926, 0.9669148999964818, 1.246667500003241, 1.3666241000173613, 1.5828538999776356, 1.7666127000120468, 2.1425425999914296]",3152.9474218999967,3172.465744199988,None, confer,"['c', 'o', 'n', 'f', 'e', 'r', 'return']","[0.47863090003374964, 0.8630468000192195, 1.1189085000078194, 1.4147503999993205, 1.6629392000031658, 1.879424500046298, 2.2387134000309743]",,,,,,,,,,22,001,C,2023_Feb_15_1045,student_TT_local,2021.1.4,48.06035611618135,
,None,None,None,None,None,None,None,None,None,None,gullet,picket,6.5,7.5,video&audio/upkeep_TT_3X.mp4,video&audio/sentence5_TT_3X.mp4,upkeep,parish,None,,,,,,,,,,,,,,,,,,,,,,,,,,,,,,,,,,,,,,,,,,,0,1,1,28,,,,,,,,,,,,,,,,,,,,,,,,,,,,,,,,,,,,,,,,,,,,,,,,3175.7194246000145,3182.235328300041,None, picket,"['p', 'i', 'c', 'k', 'e', 't', 'return']","[1.0183558000135235, 1.2907668999978341, 1.490283899998758, 1.7224660000065342, 1.970335200021509, 2.1784686000319198, 2.8583950999891385]",,,,,,,,,,22,001,C,2023_Feb_15_1045,student_TT_local,2021.1.4,48.06035611618135,
,None,None,None,None,None,None,None,None,None,None,ration,solemn,19.5,20.5,video&audio/goblet_touch_edited.mp4,video&audio/Sentence3_touch_edited.mp4,goblet,befall,None,,,,,,,,,,,,,,,,,,,,,,,,,,,,,,,,,,,,,,,,,,,0,2,2,8,,,,,,,,,,,,,,,,,,,,,,,,,,,,,,,,,,,,,,,,,,,,,,,,3186.1340699000284,3205.6495278000366,None, solemn,"['s', 'o', 'l', 'e', 'm', 'n', 'return']","[0.5252134000184014, 0.9651772999786772, 1.1732525000115857, 1.4136505000060424, 1.7812777999788523, 2.10918239998864, 2.821345200005453]",,,,,,,,,,22,001,C,2023_Feb_15_1045,student_TT_local,2021.1.4,48.06035611618135,
,None,None,None,None,None,None,None,None,None,None,apathy,virile,19.5,20.5,video&audio/revolt_touch_edited.mp4,video&audio/Sentence6_touch_edited.mp4,revolt,joiner,None,,,,,,,,,,,,,,,,,,,,,,,,,,,,,,,,,,,,,,,,,,,0,3,3,5,,,,,,,,,,,,,,,,,,,,,,,,,,,,,,,,,,,,,,,,,,,,,,,,3209.5073659000336,3229.021762499993,None, virile,"['v', 'i', 'r', 'i', 'l', 'e', 'return']","[0.7849288000143133, 1.0889058000175282, 1.35306519997539, 1.5369810999836773, 1.736885699967388, 1.9293549999711104, 2.672971499967389]",,,,,,,,,,22,001,C,2023_Feb_15_1045,student_TT_local,2021.1.4,48.06035611618135,
,None,None,None,None,None,None,None,None,None,None,mucous,subtle,6.5,7.5,video&audio/brazen_TT_3X.mp4,video&audio/sentence5_TT_3X.mp4,brazen,fungal,None,,,,,,,,,,,,,,,,,,,,,,,,,,,,,,,,,,,,,,,,,,,0,4,4,22,,,,,,,,,,,,,,,,,,,,,,,,,,,,,,,,,,,,,,,,,,,,,,,,3232.7329354000394,3239.250169200008,None, subtle,"['s', 'u', 'b', 't', 'l', 'e', 'return']","[0.8547340999939479, 1.1504029000061564, 1.4385769999935292, 1.7823117999942042, 1.99851820000913, 2.3024486000067554, 3.0067227000254206]",,,,,,,,,,22,001,C,2023_Feb_15_1045,student_TT_local,2021.1.4,48.06035611618135,
,None,None,None,None,None,None,None,None,None,None,linear,belfry,6.5,7.5,video&audio/manure_TT_3X.mp4,video&audio/sentence6_TT_3X.mp4,manure,girdle,None,,,,,,,,,,,,,,,,,,,,,,,,,,,,,,,,,,,,,,,,,,,0,5,5,23,,,,,,,,,,,,,,,,,,,,,,,,,,,,,,,,,,,,,,,,,,,,,,,,3243.273513799999,3249.790655400022,None, belfry,"['b', 'e', 'l', 'f', 'r', 'y', 'return']","[0.7747848000144586, 1.1348571999697015, 1.3429969999706373, 1.6388496999861673, 1.8392353999661282, 2.0148790999664925, 2.99085289996583]",,,,,,,,,,22,001,C,2023_Feb_15_1045,student_TT_local,2021.1.4,48.06035611618135,
,None,None,None,None,None,None,None,None,None,None,divert,kipper,6.5,7.5,video&audio/musket_TT_3X.mp4,video&audio/sentence2_TT_3X.mp4,musket,meddle,None,,,,,,,,,,,,,,,,,,,,,,,,,,,,,,,,,,,,,,,,,,,0,6,6,25,,,,,,,,,,,,,,,,,,,,,,,,,,,,,,,,,,,,,,,,,,,,,,,,3253.815288499987,3260.330763200007,None, kipper,"['k', 'i', 'p', 'p', 'e', 'r', 'return']","[0.7484168999944814, 0.9322044000145979, 1.1480276000220329, 1.2760524000041187, 1.4362659999751486, 1.6043326000217348, 2.1801628000102937]",,,,,,,,,,22,001,C,2023_Feb_15_1045,student_TT_local,2021.1.4,48.06035611618135,
,None,None,None,None,None,None,None,None,None,None,shroud,jackal,19.5,20.5,video&audio/parole_touch_edited.mp4,video&audio/Sentence4_touch_edited.mp4,parole,hamlet,None,,,,,,,,,,,,,,,,,,,,,,,,,,,,,,,,,,,,,,,,,,,0,7,7,9,,,,,,,,,,,,,,,,,,,,,,,,,,,,,,,,,,,,,,,,,,,,,,,,3263.543240900035,3283.0579020000296,None, jackal,"['j', 'a', 'c', 'k', 'a', 'l', 'return']","[0.43681670003570616, 0.6209034000057727, 0.9726106000016443, 1.1966690000263043, 1.3324639000347815, 1.468622000014875, 2.0528193000354804]",,,,,,,,,,22,001,C,2023_Feb_15_1045,student_TT_local,2021.1.4,48.06035611618135,
,"Remember to type as QUICKLY and ACCURATELY as possible after the 'get ready' prompt.

Ask the experimenter any questions now. Please put on the headphones.

You will get one practice trial. Press 'enter/return' when you are ready to start the practice.","Remember to type as QUICKLY and ACCURATELY as you can after the 'get ready' prompt.

Ask the experimenter any questions now. Please put on the headphones.

You will get one practice trial. Press 'enter/return' when you are ready to start the practice.",video&audio/Example_AOMI_total.png,1.8,0.7,None,None,None,None,None,ghetto,frugal,19.5,20.5,video&audio/jargon_touch_edited.mp4,video&audio/Sentence3_touch_edited.mp4,jargon,oppose,None,,,,,,,,,,,,,,,,,,,,,,,,,,,,,,,,,,,,,,,,,,,0,8,8,2,,,,,,,,,,,,,,,,,,,,,,,,,,,,,,,,,,,,,,,,,,,,,,,,3286.1444107000134,3305.6584878999856,None, frugal,"['f', 'r', 'u', 'g', 'a', 'l', 'return']","[0.5308114999788813, 0.9553642999962904, 1.274956499983091, 1.4910134000238031, 1.6435091000166722, 2.011158399982378, 2.747119700012263]",,,,,,,,,,22,001,C,2023_Feb_15_1045,student_TT_local,2021.1.4,48.06035611618135,
,None,None,None,None,None,None,None,None,None,None,warble,devise,6.5,7.5,video&audio/satire_TT_3X.mp4,video&audio/sentence1_TT_3X.mp4,satire,mangle,None,,,,,,,,,,,,,,,,,,,,,,,,,,,,,,,,,,,,,,,,,,,0,9,9,24,,,,,,,,,,,,,,,,,,,,,,,,,,,,,,,,,,,,,,,,,,,,,,,,3309.43248030002,3315.9495685999864,None, devise,"['d', 'e', 'v', 'i', 's', 'e', 'return']","[0.8176765000098385, 1.0255093000014313, 1.2735039999824949, 1.497827099985443, 1.7062567999819294, 1.9055807999684475, 2.51365519996034]",,,,,,,,,,22,001,C,2023_Feb_15_1045,student_TT_local,2021.1.4,48.06035611618135,
,None,None,None,None,None,None,None,None,None,None,ordain,neural,19.5,20.5,video&audio/quarry_touch_edited.mp4,video&audio/Sentence2_touch_edited.mp4,quarry,septic,None,,,,,,,,,,,,,,,,,,,,,,,,,,,,,,,,,,,,,,,,,,,0,10,10,13,,,,,,,,,,,,,,,,,,,,,,,,,,,,,,,,,,,,,,,,,,,,,,,,3338.6376218000078,3358.1528598000295,None, neural,"['n', 'e', 'u', 'r', 'a', 'semicolon', 'backspace', 'l', 'return']","[0.5816960000083782, 0.8457381000043824, 1.0137209999957122, 1.2936101999948733, 1.4376563999685459, 1.837716099980753, 2.5739678000099957, 2.837582600011956, 3.2059019000153057]",,,,,,,,,,22,001,C,2023_Feb_15_1045,student_TT_local,2021.1.4,48.06035611618135,
,"This is Section 2.

In this section, your task will be the same as before - that is, to type the word you see on the screen after the typing prompt. However, rather than just seeing the word before typing, you will also see a video of someone typing the same word you will need to type at various speeds. 

Press 'enter/return' to go to the next page.","This is Section 4. 

In this section, your task will be the same as before - that is, to type the word you see on the screen after the typing prompt. You will see a video again, like in Section 2, only this time, the video will show someone typing different words to what you must type at various speeds. 

Press 'enter/return' to go to the next page.",video&audio/Example_AOMI_layout.png,1.6,0.6,afford,19.5,20.5,video&audio/afford_touch_edited.mp4,video&audio/amount_touch_edited.mp4,breach,matrix,19.5,20.5,video&audio/vanity_touch_edited.mp4,video&audio/Sentence1_touch_edited.mp4,vanity,hinder,1 = AOMIspec,,,,,,,,,,,,,,,,,,,,,,,,,,,,,,,,,,,,,,,,,,,0,11,11,0,,,,,,,,,,,,,,,,,,,,,,,,,,,,,,,,,,,,,,,,,,,,,,,,3362.3861278000404,3381.900310600002,None, matrix,"['m', 'a', 't', 'r', 'i', 'x', 'return']","[0.3857986999792047, 0.5935494999866933, 0.985616999969352, 1.1779765999526717, 1.6017906999913976, 1.8896917999954894, 2.241725799976848]",,,,,,,,,,22,001,C,2023_Feb_15_1045,student_TT_local,2021.1.4,48.06035611618135,
,None,None,None,None,None,None,None,None,None,None,allure,forage,6.5,7.5,video&audio/legion_TT_3X.mp4,video&audio/sentence6_TT_3X.mp4,legion,campus,None,,,,,,,,,,,,,,,,,,,,,,,,,,,,,,,,,,,,,,,,,,,0,12,12,29,,,,,,,,,,,,,,,,,,,,,,,,,,,,,,,,,,,,,,,,,,,,,,,,3385.174077100004,3391.690973000019,None, forage,"['f', 'o', 'r', 'a', 'g', 'e', 'return']","[0.7952028000145219, 1.027945100038778, 1.3874283999903128, 1.4833201000001281, 1.6119658999959938, 1.7157949000247754, 2.307564100017771]",,,,,,,,,,22,001,C,2023_Feb_15_1045,student_TT_local,2021.1.4,48.06035611618135,
,None,None,None,None,None,None,None,None,None,None,revoke,malady,19.5,20.5,video&audio/mirage_touch_edited.mp4,video&audio/Sentence1_touch_edited.mp4,mirage,shrewd,None,,,,,,,,,,,,,,,,,,,,,,,,,,,,,,,,,,,,,,,,,,,0,13,13,6,,,,,,,,,,,,,,,,,,,,,,,,,,,,,,,,,,,,,,,,,,,,,,,,3395.027275500004,3414.542983499996,None, malady,"['m', 'a', 'l', 'a', 'd', 'y', 'return']","[1.1816265000379644, 1.3893192000105046, 1.5733932000002824, 1.6773599000298418, 2.005826300010085, 2.1654892000369728, 2.8613629000028595]",,,,,,,,,,22,001,C,2023_Feb_15_1045,student_TT_local,2021.1.4,48.06035611618135,
,None,None,None,None,None,None,None,None,None,None,nettle,plasma,6.5,7.5,video&audio/deduct_TT_3X.mp4,video&audio/sentence5_TT_3X.mp4,deduct,jailer,None,,,,,,,,,,,,,,,,,,,,,,,,,,,,,,,,,,,,,,,,,,,0,14,14,16,,,,,,,,,,,,,,,,,,,,,,,,,,,,,,,,,,,,,,,,,,,,,,,,3418.441153599997,3424.9580430000206,None, plasma,"['p', 'l', 'a', 's', 'm', 'a', 'return']","[0.9506238999892958, 1.1348820999846794, 1.2788000999717042, 1.4786266000010073, 1.6786164999939501, 1.7746479999623261, 2.574618799961172]",,,,,,,,,,22,001,C,2023_Feb_15_1045,student_TT_local,2021.1.4,48.06035611618135,
,None,None,None,None,None,None,None,None,None,None,galley,tariff,19.5,20.5,video&audio/strife_touch_edited.mp4,video&audio/Sentence2_touch_edited.mp4,strife,delude,None,,,,,,,,,,,,,,,,,,,,,,,,,,,,,,,,,,,,,,,,,,,0,15,15,7,,,,,,,,,,,,,,,,,,,,,,,,,,,,,,,,,,,,,,,,,,,,,,,,3428.5642957999953,3448.0801847000257,None, tariff,"['t', 'a', 'r', 'i', 'f', 'f', 'return']","[0.7661805999814533, 0.9423091000062414, 1.054272299981676, 2.086216800031252, 2.310366299992893, 2.4462434999877587, 2.7982972000027075]",,,,,,,,,,22,001,C,2023_Feb_15_1045,student_TT_local,2021.1.4,48.06035611618135,
,None,None,None,None,None,None,None,None,None,None,portal,ritual,6.5,7.5,video&audio/coerce_TT_3X.mp4,video&audio/sentence6_TT_3X.mp4,coerce,clergy,None,,,,,,,,,,,,,,,,,,,,,,,,,,,,,,,,,,,,,,,,,,,0,16,16,17,,,,,,,,,,,,,,,,,,,,,,,,,,,,,,,,,,,,,,,,,,,,,,,,3451.9160356000066,3458.433118999994,None, ritual,"['r', 'i', 't', 'u', 'a', 'l', 'return']","[0.894312699965667, 1.1099514999659732, 1.3662865000078455, 1.5905045999679714, 1.7337880000122823, 2.0140010999748483, 2.6621478999732062]",,,,,,,,,,22,001,C,2023_Feb_15_1045,student_TT_local,2021.1.4,48.06035611618135,
,None,None,None,None,None,None,None,None,None,None,export,cervix,6.5,7.5,video&audio/murmur_TT_3X.mp4,video&audio/sentence2_TT_3X.mp4,murmur,cobble,None,,,,,,,,,,,,,,,,,,,,,,,,,,,,,,,,,,,,,,,,,,,0,17,17,19,,,,,,,,,,,,,,,,,,,,,,,,,,,,,,,,,,,,,,,,,,,,,,,,3462.1238914999994,3468.6404283000156,None, cervix,"['c', 'e', 'r', 'v', 'i', 'x', 'return']","[0.7407031999900937, 0.9727954000118189, 1.1888614000054076, 1.340658200031612, 2.396689100016374, 2.524736399995163, 3.1327091000275686]",,,,,,,,,,22,001,C,2023_Feb_15_1045,student_TT_local,2021.1.4,48.06035611618135,
,None,None,None,None,None,None,None,None,None,None,defame,covert,19.5,20.5,video&audio/binder_touch_edited.mp4,video&audio/Sentence6_touch_edited.mp4,binder,patent,None,,,,,,,,,,,,,,,,,,,,,,,,,,,,,,,,,,,,,,,,,,,0,18,18,11,,,,,,,,,,,,,,,,,,,,,,,,,,,,,,,,,,,,,,,,,,,,,,,,3472.810434599989,3492.3251968999975,None, covert,"['c', 'o', 'v', 'e', 'r', 'y', 'backspace', 't', 'return']","[0.8472543000243604, 1.0232474000076763, 1.3435371000086889, 1.5032954000052996, 1.6554746000329033, 1.7432404999854043, 2.495644500013441, 3.007593300018925, 3.4072262999834493]",,,,,,,,,,22,001,C,2023_Feb_15_1045,student_TT_local,2021.1.4,48.06035611618135,
,None,None,None,None,None,None,None,None,None,None,herbal,hippie,19.5,20.5,video&audio/sonnet_touch_edited.mp4,video&audio/Sentence3_touch_edited.mp4,sonnet,hearth,None,,,,,,,,,,,,,,,,,,,,,,,,,,,,,,,,,,,,,,,,,,,0,19,19,14,,,,,,,,,,,,,,,,,,,,,,,,,,,,,,,,,,,,,,,,,,,,,,,,3496.765684599988,3516.2810173000325,None, hippie,"['h', 'i', 'p', 'p', 'i', 'e', 'return']","[0.7662720000371337, 1.0222632000222802, 1.2787962000002153, 1.4065237999893725, 1.5745561000076123, 1.8461778000346385, 2.1900744999875315]",,,,,,,,,,22,001,C,2023_Feb_15_1045,student_TT_local,2021.1.4,48.06035611618135,
,"While you watch the video, imagine yourself typing the word on the screen, like how you did in the imagery practice. While you watch the video and imagine this, rest your hands on your keyboard but DO NOT type until AFTER you see the typing prompt.

Press 'enter/return' to go to the next page.","While watching the video, imagine yourself typing the word on the screen, like how you did in the imagery practice. While you watch the video and imagine this, rest your hands on your keyboard but DO NOT type until AFTER you see the typing prompt.

Press 'enter/return' to go to the next page.",video&audio/Example_AOMI_imagine.png,1.6,1,butter,6.5,7.5,video&audio/butter_TT_3X.mp4,video&audio/amount_TT_3X.mp4,eatery,ascend,19.5,20.5,video&audio/plight_touch_edited.mp4,video&audio/Sentence2_touch_edited.mp4,plight,metric,2 = AOMIgen,,,,,,,,,,,,,,,,,,,,,,,,,,,,,,,,,,,,,,,,,,,0,20,20,1,,,,,,,,,,,,,,,,,,,,,,,,,,,,,,,,,,,,,,,,,,,,,,,,3535.239085500012,3554.755424700037,None, ascend,"['a', 's', 'c', 'e', 'n', 'd', 'return']","[0.6251748999929987, 0.9211528999730945, 1.1451375000178814, 1.2411088999942876, 1.4091373999835923, 1.5132544999942183, 2.105161199986469]",,,,,,,,,,22,001,C,2023_Feb_15_1045,student_TT_local,2021.1.4,48.06035611618135,
,None,None,None,None,None,None,None,None,None,None,origin,falter,6.5,7.5,video&audio/potent_TT_3X.mp4,video&audio/sentence4_TT_3X.mp4,potent,tandem,None,,,,,,,,,,,,,,,,,,,,,,,,,,,,,,,,,,,,,,,,,,,0,21,21,15,,,,,,,,,,,,,,,,,,,,,,,,,,,,,,,,,,,,,,,,,,,,,,,,3557.904258100025,3564.42071070004,None, falter,"['f', 'a', 'l', 't', 'e', 'r', 'return']","[0.8575146000366658, 1.0015651000430807, 1.1615524000371806, 1.4574334000353701, 1.5696159000508487, 1.738204300054349, 2.321556300041266]",,,,,,,,,,22,001,C,2023_Feb_15_1045,student_TT_local,2021.1.4,48.06035611618135,
,None,None,None,None,None,None,None,None,None,None,shrill,piston,6.5,7.5,video&audio/pursue_TT_3X.mp4,video&audio/sentence3_TT_3X.mp4,pursue,caviar,None,,,,,,,,,,,,,,,,,,,,,,,,,,,,,,,,,,,,,,,,,,,0,22,22,20,,,,,,,,,,,,,,,,,,,,,,,,,,,,,,,,,,,,,,,,,,,,,,,,3567.7778216000297,3574.29720130004,None, piston,"['p', 'i', 's', 't', 'o', 'n', 'return']","[0.7486262999591418, 1.0127106999862008, 1.148714699957054, 1.412903499964159, 1.5409370999550447, 1.693081799952779, 2.2134275999851525]",,,,,,,,,,22,001,C,2023_Feb_15_1045,student_TT_local,2021.1.4,48.06035611618135,
,None,None,None,None,None,None,None,None,None,None,ethnic,botany,6.5,7.5,video&audio/fodder_TT_3X.mp4,video&audio/sentence4_TT_3X.mp4,fodder,trench,None,,,,,,,,,,,,,,,,,,,,,,,,,,,,,,,,,,,,,,,,,,,0,23,23,27,,,,,,,,,,,,,,,,,,,,,,,,,,,,,,,,,,,,,,,,,,,,,,,,3577.5474754000315,3584.064906499989,None, botany,"['n', 'backspace', 'b', 'o', 't', 'a', 'n', 'y', 'return']","[0.7658702000044286, 1.29386269999668, 1.654239299998153, 1.7979040000354871, 2.0939157000393607, 2.181894400040619, 2.3338270999956876, 2.5339647000073455, 3.2701191999949515]",,,,,,,,,,22,001,C,2023_Feb_15_1045,student_TT_local,2021.1.4,48.06035611618135,
,None,None,None,None,None,None,None,None,None,None,matron,subdue,6.5,7.5,video&audio/impose_TT_3X.mp4,video&audio/sentence3_TT_3X.mp4,impose,feudal,None,,,,,,,,,,,,,,,,,,,,,,,,,,,,,,,,,,,,,,,,,,,0,24,24,26,,,,,,,,,,,,,,,,,,,,,,,,,,,,,,,,,,,,,,,,,,,,,,,,3588.3785082999966,3594.8965050000115,None, subdue,"['s', 'u', 'b', 'd', 'u', 'e', 'return']","[0.7337654000148177, 0.9659045999869704, 1.2062479999731295, 2.1497026999713853, 2.3338159999693744, 2.469978299981449, 3.1179423999856226]",,,,,,,,,,22,001,C,2023_Feb_15_1045,student_TT_local,2021.1.4,48.06035611618135,
,None,None,None,None,None,None,None,None,None,None,mystic,pulpit,19.5,20.5,video&audio/infirm_touch_edited.mp4,video&audio/Sentence4_touch_edited.mp4,infirm,oblige,None,,,,,,,,,,,,,,,,,,,,,,,,,,,,,,,,,,,,,,,,,,,0,25,25,3,,,,,,,,,,,,,,,,,,,,,,,,,,,,,,,,,,,,,,,,,,,,,,,,3599.045729800011,3618.5608300000313,None, pulpit,"['p', 'u', 'l', 'p', 'i', 't', 'return']","[0.30082529998617247, 0.628837600001134, 0.8847468000021763, 1.0693679000250995, 1.2368959999876097, 1.3487965000094846, 1.6448166000191122]",,,,,,,,,,22,001,C,2023_Feb_15_1045,student_TT_local,2021.1.4,48.06035611618135,
,None,None,None,None,None,None,None,None,None,None,mussel,cortex,6.5,7.5,video&audio/savant_TT_3X.mp4,video&audio/sentence4_TT_3X.mp4,savant,induce,None,,,,,,,,,,,,,,,,,,,,,,,,,,,,,,,,,,,,,,,,,,,0,26,26,21,,,,,,,,,,,,,,,,,,,,,,,,,,,,,,,,,,,,,,,,,,,,,,,,3621.2522123000235,3627.7677395000355,None, cortex,"['c', 'o', 'r', 't', 'e', 'x', 'return']","[0.7976747999782674, 1.021277200023178, 1.9412626000121236, 2.061430500005372, 2.197564699978102, 3.085338299977593, 3.8933261000202037]",,,,,,,,,,22,001,C,2023_Feb_15_1045,student_TT_local,2021.1.4,48.06035611618135,
,None,None,None,None,None,None,None,None,None,None,fusion,obsess,19.5,20.5,video&audio/sherry_touch_edited.mp4,video&audio/Sentence5_touch_edited.mp4,sherry,zephyr,None,,,,,,,,,,,,,,,,,,,,,,,,,,,,,,,,,,,,,,,,,,,0,27,27,10,,,,,,,,,,,,,,,,,,,,,,,,,,,,,,,,,,,,,,,,,,,,,,,,3632.70674709999,3652.2232986000017,None, obsess,"['o', 'b', 's', 'e', 's', 's', 'return']","[0.3673434000229463, 0.8153978000045754, 1.0399649000028148, 1.2954519999912009, 1.5036866000154987, 1.6322210000362247, 1.7754864000016823]",,,,,,,,,,22,001,C,2023_Feb_15_1045,student_TT_local,2021.1.4,48.06035611618135,
,None,None,None,None,None,None,None,None,None,None,uphold,debtor,6.5,7.5,video&audio/convoy_TT_3X.mp4,video&audio/sentence1_TT_3X.mp4,convoy,output,None,,,,,,,,,,,,,,,,,,,,,,,,,,,,,,,,,,,,,,,,,,,0,28,28,18,,,,,,,,,,,,,,,,,,,,,,,,,,,,,,,,,,,,,,,,,,,,,,,,3655.0386989000253,3661.555540500034,None, debtor,"['d', 'e', 'b', 't', 'o', 'r', 'return']","[0.7388886999688111, 0.9947082999860868, 1.1546301000053063, 1.3387481999816373, 1.578646999958437, 1.722783499979414, 2.386942600016482]",,,,,,,,,,22,001,C,2023_Feb_15_1045,student_TT_local,2021.1.4,48.06035611618135,
,None,None,None,None,None,None,None,None,None,None,entail,parcel,19.5,20.5,video&audio/novice_touch_edited.mp4,video&audio/Sentence5_touch_edited.mp4,novice,primal,None,,,,,,,,,,,,,,,,,,,,,,,,,,,,,,,,,,,,,,,,,,,0,29,29,4,,,,,,,,,,,,,,,,,,,,,,,,,,,,,,,,,,,,,,,,,,,,,,,,3664.976037300017,3684.490311200032,None, parcel,"['p', 'a', 'r', 'c', 'e', 'semicolon', 'backspace', 'l', 'return']","[0.923593699990306, 1.1633262999821454, 1.4109465000219643, 1.5549144999822602, 1.8670079999719746, 2.0590158000122756, 2.8195776999928057, 3.1390988000202924, 3.4592210999689996]",,,,,,,,,,22,001,C,2023_Feb_15_1045,student_TT_local,2021.1.4,48.06035611618135,
,,,,,,,,,,,,,,,,,,,,typingRatingScale.png,"How would you rate your typing performance in the previous section?

Press a number on your keyboard according to the rating scale below to give your answer. Your first answer will be accepted.",,,,,,,,,,,,,,,,,,,,,,,,,,,,,,,,,,,,,,,,,,,,,0,0,0,0,,,,,,,,,,,,,,,,,,,,,,,,,,,,,,,,,,,,,,,,,,,,,,,,,,['3'],[4.648796499997843],,,,,,,,22,001,C,2023_Feb_15_1045,student_TT_local,2021.1.4,48.06035611618135,
,,,,,,,,,,,,,,,,,,,,imageryCheckScale.png,"In the previous section did you imagine yourself typing?

Press a number on your keyboard according to the rating scale below to give your answer. Your first answer will be accepted.",,,,,,,,,,,,,,,,,,,,,,,,,,,,,,,,,,,,,,,,,,,,,0,1,1,1,,,,,,,,,,,,,,,,,,,,,,,,,,,,,,,,,,,,,,,,,,,,,,,,,,['2'],[5.972799899987876],,,,,,,,22,001,C,2023_Feb_15_1045,student_TT_local,2021.1.4,48.06035611618135,
,None,None,None,None,None,None,None,None,None,None,warble,devise,6.5,7.5,video&audio/satire_TT_3X.mp4,video&audio/sentence1_TT_3X.mp4,satire,mangle,None,,,,,,,,,,,,,,,,,,,,,,,,,,,,,,,,,,,,,,,,,,,,,,,,,,,,,,,,,,,0,0,0,24,,,,,,,,,,,,,,,,None,"['b', 'u', 't', 't', 'e', 'r', 'return']","[0.8338950999896042, 1.0818581000203267, 1.4896525000222027, 1.6259388999897055, 1.698007500031963, 1.8659989000298083, 2.961575700028334]",,,,,,,,,,,,,,,,,,,,,,None,None, mangle,"['m', 'a', 'b', 'backspace', 'n', 'g', 'l', 'e', 'return']","[0.9121771999634802, 1.112416399992071, 1.4081574999727309, 2.0881818999769166, 2.4881019999738783, 2.800240999960806, 3.0960764999617822, 3.3361007999628782, 3.992231599986553]",,,22,001,C,2023_Feb_15_1045,student_TT_local,2021.1.4,48.06035611618135,
,None,None,None,None,None,None,None,None,None,None,nettle,plasma,6.5,7.5,video&audio/deduct_TT_3X.mp4,video&audio/sentence5_TT_3X.mp4,deduct,jailer,None,,,,,,,,,,,,,,,,,,,,,,,,,,,,,,,,,,,,,,,,,,,,,,,,,,,,,,,,,,,0,1,1,16,,,,,,,,,,,,,,,,None,,,,,,,,,,,,,,,,,,,,,,,,,None, jailer,"['j', 'a', 'i', 'l', 'e', 'r', 'return']","[0.570199900015723, 0.9222142000216991, 1.0983052999945357, 1.2738845000276342, 1.4741649000206962, 1.6503141000284813, 2.258346100046765]",,,22,001,C,2023_Feb_15_1045,student_TT_local,2021.1.4,48.06035611618135,
,None,None,None,None,None,None,None,None,None,None,allure,forage,6.5,7.5,video&audio/legion_TT_3X.mp4,video&audio/sentence6_TT_3X.mp4,legion,campus,None,,,,,,,,,,,,,,,,,,,,,,,,,,,,,,,,,,,,,,,,,,,,,,,,,,,,,,,,,,,0,2,2,29,,,,,,,,,,,,,,,,None,,,,,,,,,,,,,,,,,,,,,,,,,None, campus,"['c', 'a', 'm', 'p', 'u', 's']","[0.9879078000085428, 1.2438333999598399, 1.6999306000070646, 1.9159526999574155, 2.1399202999891713, 2.236622199998237]",,,22,001,C,2023_Feb_15_1045,student_TT_local,2021.1.4,48.06035611618135,
,None,None,None,None,None,None,None,None,None,None,ethnic,botany,6.5,7.5,video&audio/fodder_TT_3X.mp4,video&audio/sentence4_TT_3X.mp4,fodder,trench,None,,,,,,,,,,,,,,,,,,,,,,,,,,,,,,,,,,,,,,,,,,,,,,,,,,,,,,,,,,,0,3,3,27,,,,,,,,,,,,,,,,None,,,,,,,,,,,,,,,,,,,,,,,,,None, trench,"['t', 'r', 'e', 'n', 'c', 'h', 'return']","[0.830271199985873, 1.030327699962072, 1.1905603999621235, 1.3343118999619037, 1.4306769999675453, 1.5346851999638602, 1.9902396999532357]",,,22,001,C,2023_Feb_15_1045,student_TT_local,2021.1.4,48.06035611618135,
,None,None,None,None,None,None,None,None,None,None,shrill,piston,6.5,7.5,video&audio/pursue_TT_3X.mp4,video&audio/sentence3_TT_3X.mp4,pursue,caviar,None,,,,,,,,,,,,,,,,,,,,,,,,,,,,,,,,,,,,,,,,,,,,,,,,,,,,,,,,,,,0,4,4,20,,,,,,,,,,,,,,,,None,,,,,,,,,,,,,,,,,,,,,,,,,None, caviar,"['c', 'a', 'v', 'i', 'a', 'r', 'return']","[0.76332889997866, 1.0195875000208616, 1.1873131999745965, 1.459002599993255, 1.891108500014525, 2.0512943000067025, 2.9793235000106506]",,,22,001,C,2023_Feb_15_1045,student_TT_local,2021.1.4,48.06035611618135,
,None,None,None,None,None,None,None,None,None,None,matron,subdue,6.5,7.5,video&audio/impose_TT_3X.mp4,video&audio/sentence3_TT_3X.mp4,impose,feudal,None,,,,,,,,,,,,,,,,,,,,,,,,,,,,,,,,,,,,,,,,,,,,,,,,,,,,,,,,,,,0,5,5,26,,,,,,,,,,,,,,,,None,,,,,,,,,,,,,,,,,,,,,,,,,None, feudal,"['d', 'backspace', 'f', 'e', 'u', 'd', 'a', 'semicolon', 'backspace', 'l', 'return']","[0.4794069000054151, 1.1033277000533417, 1.342756099998951, 1.9675585000077263, 2.2868728000321425, 3.095112800016068, 3.350924300029874, 3.6951267000404187, 4.438754900009371, 4.766755200049374, 5.342681500012986]",,,22,001,C,2023_Feb_15_1045,student_TT_local,2021.1.4,48.06035611618135,
,None,None,None,None,None,None,None,None,None,None,mussel,cortex,6.5,7.5,video&audio/savant_TT_3X.mp4,video&audio/sentence4_TT_3X.mp4,savant,induce,None,,,,,,,,,,,,,,,,,,,,,,,,,,,,,,,,,,,,,,,,,,,,,,,,,,,,,,,,,,,0,6,6,21,,,,,,,,,,,,,,,,None,,,,,,,,,,,,,,,,,,,,,,,,,None, induce,"['i', 'n', 'd', 'u', 'c', 'e', 'return']","[0.7054767000372522, 0.9530758000328206, 1.169108400004916, 1.3615271000307985, 1.5214312000316568, 1.7212113999994472, 2.1691784000140615]",,,22,001,C,2023_Feb_15_1045,student_TT_local,2021.1.4,48.06035611618135,
,"While you watch the video, imagine yourself typing the word on the screen, like how you did in the imagery practice. While you watch the video and imagine this, rest your hands on your keyboard but DO NOT type until AFTER you see the typing prompt.

Press 'enter/return' to go to the next page.","While watching the video, imagine yourself typing the word on the screen, like how you did in the imagery practice. While you watch the video and imagine this, rest your hands on your keyboard but DO NOT type until AFTER you see the typing prompt.

Press 'enter/return' to go to the next page.",video&audio/Example_AOMI_imagine.png,1.6,1,butter,6.5,7.5,video&audio/butter_TT_3X.mp4,video&audio/amount_TT_3X.mp4,eatery,ascend,19.5,20.5,video&audio/plight_touch_edited.mp4,video&audio/Sentence2_touch_edited.mp4,plight,metric,2 = AOMIgen,,,,,,,,,,,,,,,,,,,,,,,,,,,,,,,,,,,,,,,,,,,,,,,,,,,,,,,,,,,0,7,7,1,,,,,,,,,,,,,,,,None,,,,,,,,,,,,,,,,,,,,,,,,,None, metric,"['m', 'e', 't', 'r', 'i', 'c', 'return']","[0.8486142000183463, 1.0405334000242874, 1.2967789000249468, 1.480600900016725, 1.592658500012476, 1.832561600022018, 2.4806076000095345]",,,22,001,C,2023_Feb_15_1045,student_TT_local,2021.1.4,48.06035611618135,
,None,None,None,None,None,None,None,None,None,None,uphold,debtor,6.5,7.5,video&audio/convoy_TT_3X.mp4,video&audio/sentence1_TT_3X.mp4,convoy,output,None,,,,,,,,,,,,,,,,,,,,,,,,,,,,,,,,,,,,,,,,,,,,,,,,,,,,,,,,,,,0,8,8,18,,,,,,,,,,,,,,,,None,,,,,,,,,,,,,,,,,,,,,,,,,None, output,"['p', 'backspace', 'o', 'u', 't', 'p', 'u', 't', 'return']","[0.6991712999879383, 1.163109400018584, 1.4427715000347234, 1.6910559000098146, 1.9151103000040166, 2.051539500011131, 2.474891000019852, 2.65910960000474, 3.0111321000149474]",,,22,001,C,2023_Feb_15_1045,student_TT_local,2021.1.4,48.06035611618135,
,None,None,None,None,None,None,None,None,None,None,tamper,confer,19.5,20.5,video&audio/critic_touch_edited.mp4,video&audio/Sentence1_touch_edited.mp4,critic,innate,None,,,,,,,,,,,,,,,,,,,,,,,,,,,,,,,,,,,,,,,,,,,,,,,,,,,,,,,,,,,0,9,9,12,,,,,,,,,,,,,,,,None,,,,,,,,,,,,,,,,,,,,,,,,,None, innate,"['i', 'n', 'n', 'a', 't', 'e', 'return']","[0.7134073000052013, 0.897590400010813, 1.5454870000248775, 1.721525400003884, 1.8735875000129454, 1.9934585000155494, 2.6977853000280447]",,,22,001,C,2023_Feb_15_1045,student_TT_local,2021.1.4,48.06035611618135,
,None,None,None,None,None,None,None,None,None,None,export,cervix,6.5,7.5,video&audio/murmur_TT_3X.mp4,video&audio/sentence2_TT_3X.mp4,murmur,cobble,None,,,,,,,,,,,,,,,,,,,,,,,,,,,,,,,,,,,,,,,,,,,,,,,,,,,,,,,,,,,0,10,10,19,,,,,,,,,,,,,,,,None,,,,,,,,,,,,,,,,,,,,,,,,,None, cobble,"['c', 'o', 'b', 'b', 'l', 'e', 'return']","[0.6724563000025228, 0.880459800013341, 1.1683801999897696, 1.2803352000191808, 1.496821100008674, 1.6166430999874137, 2.176424400007818]",,,22,001,C,2023_Feb_15_1045,student_TT_local,2021.1.4,48.06035611618135,
,None,None,None,None,None,None,None,None,None,None,ration,solemn,19.5,20.5,video&audio/goblet_touch_edited.mp4,video&audio/Sentence3_touch_edited.mp4,goblet,befall,None,,,,,,,,,,,,,,,,,,,,,,,,,,,,,,,,,,,,,,,,,,,,,,,,,,,,,,,,,,,0,11,11,8,,,,,,,,,,,,,,,,None,,,,,,,,,,,,,,,,,,,,,,,,,None, befall,"['b', 'e', 'f', 'a', 'l', 'l', 'return']","[0.48149999999441206, 0.8738729000324383, 1.129451800021343, 1.489563100039959, 1.8099173000082374, 1.945802200003527, 2.5134809000301175]",,,22,001,C,2023_Feb_15_1045,student_TT_local,2021.1.4,48.06035611618135,
,None,None,None,None,None,None,None,None,None,None,ordain,neural,19.5,20.5,video&audio/quarry_touch_edited.mp4,video&audio/Sentence2_touch_edited.mp4,quarry,septic,None,,,,,,,,,,,,,,,,,,,,,,,,,,,,,,,,,,,,,,,,,,,,,,,,,,,,,,,,,,,0,12,12,13,,,,,,,,,,,,,,,,None,,,,,,,,,,,,,,,,,,,,,,,,,None, septic,"['s', 'e', 'p', 't', 'i', 'c', 'return']","[0.9058851000154391, 1.3058880000025965, 1.5858330000191927, 1.8179283000063151, 1.9864611999946646, 2.193886300025042, 2.5542171000270173]",,,22,001,C,2023_Feb_15_1045,student_TT_local,2021.1.4,48.06035611618135,
,None,None,None,None,None,None,None,None,None,None,revoke,malady,19.5,20.5,video&audio/mirage_touch_edited.mp4,video&audio/Sentence1_touch_edited.mp4,mirage,shrewd,None,,,,,,,,,,,,,,,,,,,,,,,,,,,,,,,,,,,,,,,,,,,,,,,,,,,,,,,,,,,0,13,13,6,,,,,,,,,,,,,,,,None,,,,,,,,,,,,,,,,,,,,,,,,,None, shrewd,"['s', 'h', 'r', 'e', 'w', 'd', 'return']","[0.7832933000172488, 0.9592150000389665, 1.2311162000405602, 1.4230175000266172, 1.6233401999925263, 1.8710000000428408, 2.5432802000432275]",,,22,001,C,2023_Feb_15_1045,student_TT_local,2021.1.4,48.06035611618135,
,None,None,None,None,None,None,None,None,None,None,linear,belfry,6.5,7.5,video&audio/manure_TT_3X.mp4,video&audio/sentence6_TT_3X.mp4,manure,girdle,None,,,,,,,,,,,,,,,,,,,,,,,,,,,,,,,,,,,,,,,,,,,,,,,,,,,,,,,,,,,0,14,14,23,,,,,,,,,,,,,,,,None,,,,,,,,,,,,,,,,,,,,,,,,,None, girdle,"['g', 'i', 'r', 'd', 'l', 'e', 'return']","[0.6574259999906644, 0.9051704999874346, 1.0728766999673098, 1.336891499988269, 1.4649499999941327, 1.5448497000033967, 1.9688714999938384]",,,22,001,C,2023_Feb_15_1045,student_TT_local,2021.1.4,48.06035611618135,
,None,None,None,None,None,None,None,None,None,None,apathy,virile,19.5,20.5,video&audio/revolt_touch_edited.mp4,video&audio/Sentence6_touch_edited.mp4,revolt,joiner,None,,,,,,,,,,,,,,,,,,,,,,,,,,,,,,,,,,,,,,,,,,,,,,,,,,,,,,,,,,,0,15,15,5,,,,,,,,,,,,,,,,None,,,,,,,,,,,,,,,,,,,,,,,,,None, joiner,"['j', 'o', 'i', 'n', 'e', 'r', 'return']","[0.5786491999751888, 0.810892999987118, 1.0108358999714255, 1.194660599983763, 1.3867427000077441, 1.5947139000054449, 1.7866758999880403]",,,22,001,C,2023_Feb_15_1045,student_TT_local,2021.1.4,48.06035611618135,
,None,None,None,None,None,None,None,None,None,None,mystic,pulpit,19.5,20.5,video&audio/infirm_touch_edited.mp4,video&audio/Sentence4_touch_edited.mp4,infirm,oblige,None,,,,,,,,,,,,,,,,,,,,,,,,,,,,,,,,,,,,,,,,,,,,,,,,,,,,,,,,,,,0,16,16,3,,,,,,,,,,,,,,,,None,,,,,,,,,,,,,,,,,,,,,,,,,None, oblige,"['o', 'b', 'l', 'i', 'g', 'e', 'return']","[0.7295300000114366, 0.9696688000112772, 1.0416269999695942, 1.2335137000191025, 1.5534580000094138, 1.6893692999728955, 2.0974483999889344]",,,22,001,C,2023_Feb_15_1045,student_TT_local,2021.1.4,48.06035611618135,
,None,None,None,None,None,None,None,None,None,None,portal,ritual,6.5,7.5,video&audio/coerce_TT_3X.mp4,video&audio/sentence6_TT_3X.mp4,coerce,clergy,None,,,,,,,,,,,,,,,,,,,,,,,,,,,,,,,,,,,,,,,,,,,,,,,,,,,,,,,,,,,0,17,17,17,,,,,,,,,,,,,,,,None,,,,,,,,,,,,,,,,,,,,,,,,,None, clergy,"['c', 'l', 'e', 'r', 'g', 'y', 'return']","[0.9221375999622978, 1.0982768999529071, 1.322054099990055, 1.530127799953334, 1.6500932999770157, 1.8023162999888882, 2.442105099966284]",,,22,001,C,2023_Feb_15_1045,student_TT_local,2021.1.4,48.06035611618135,
,"Remember to type as QUICKLY and ACCURATELY as possible after the 'get ready' prompt.

Ask the experimenter any questions now. Please put on the headphones.

You will get one practice trial. Press 'enter/return' when you are ready to start the practice.","Remember to type as QUICKLY and ACCURATELY as you can after the 'get ready' prompt.

Ask the experimenter any questions now. Please put on the headphones.

You will get one practice trial. Press 'enter/return' when you are ready to start the practice.",video&audio/Example_AOMI_total.png,1.8,0.7,None,None,None,None,None,ghetto,frugal,19.5,20.5,video&audio/jargon_touch_edited.mp4,video&audio/Sentence3_touch_edited.mp4,jargon,oppose,None,,,,,,,,,,,,,,,,,,,,,,,,,,,,,,,,,,,,,,,,,,,,,,,,,,,,,,,,,,,0,18,18,2,,,,,,,,,,,,,,,,None,,,,,,,,,,,,,,,,,,,,,,,,,None, oppose,"['o', 'p', 'p', 'o', 's', 'e', 'return']","[0.8605014000204392, 1.0526494000223465, 1.2047637000214309, 1.3409526000032201, 1.5085727999685332, 1.7246121999924071, 1.9087269000010565]",,,22,001,C,2023_Feb_15_1045,student_TT_local,2021.1.4,48.06035611618135,
,None,None,None,None,None,None,None,None,None,None,shroud,jackal,19.5,20.5,video&audio/parole_touch_edited.mp4,video&audio/Sentence4_touch_edited.mp4,parole,hamlet,None,,,,,,,,,,,,,,,,,,,,,,,,,,,,,,,,,,,,,,,,,,,,,,,,,,,,,,,,,,,0,19,19,9,,,,,,,,,,,,,,,,None,,,,,,,,,,,,,,,,,,,,,,,,,None, hamlet,"['h', 'a', 'm', 'l', 'e', 't', 'return']","[0.8008643999928609, 0.9688369000214152, 1.2488445999915712, 1.4328190999804065, 1.6331543999840505, 1.7849113999982364, 2.4730023000156507]",,,22,001,C,2023_Feb_15_1045,student_TT_local,2021.1.4,48.06035611618135,
,None,None,None,None,None,None,None,None,None,None,galley,tariff,19.5,20.5,video&audio/strife_touch_edited.mp4,video&audio/Sentence2_touch_edited.mp4,strife,delude,None,,,,,,,,,,,,,,,,,,,,,,,,,,,,,,,,,,,,,,,,,,,,,,,,,,,,,,,,,,,0,20,20,7,,,,,,,,,,,,,,,,None,,,,,,,,,,,,,,,,,,,,,,,,,None, delude,"['d', 'e', 'l', 'u', 'd', 'e', 'return']","[0.6866570000420325, 0.902234600041993, 0.9903679999988526, 1.2702333999914117, 1.4783457000157796, 1.6462085000239313, 2.134453700040467]",,,22,001,C,2023_Feb_15_1045,student_TT_local,2021.1.4,48.06035611618135,
,None,None,None,None,None,None,None,None,None,None,entail,parcel,19.5,20.5,video&audio/novice_touch_edited.mp4,video&audio/Sentence5_touch_edited.mp4,novice,primal,None,,,,,,,,,,,,,,,,,,,,,,,,,,,,,,,,,,,,,,,,,,,,,,,,,,,,,,,,,,,0,21,21,4,,,,,,,,,,,,,,,,None,,,,,,,,,,,,,,,,,,,,,,,,,None, primal,"['p', 'r', 'm', 'backspace', 'i', 'm', 'a', 'l', 'return']","[0.7128920999821275, 1.1133788999868557, 1.4406956000020728, 1.8731870999909006, 2.6969685999793, 2.888800800021272, 3.009004899999127, 3.1208342000027187, 3.7929642000235617]",,,22,001,C,2023_Feb_15_1045,student_TT_local,2021.1.4,48.06035611618135,
,None,None,None,None,None,None,None,None,None,None,defame,covert,19.5,20.5,video&audio/binder_touch_edited.mp4,video&audio/Sentence6_touch_edited.mp4,binder,patent,None,,,,,,,,,,,,,,,,,,,,,,,,,,,,,,,,,,,,,,,,,,,,,,,,,,,,,,,,,,,0,22,22,11,,,,,,,,,,,,,,,,None,,,,,,,,,,,,,,,,,,,,,,,,,None, patent,"['p', 'a', 't', 'e', 'n', 't', 'return']","[0.6856356000062078, 0.8295885999687016, 1.037747299997136, 1.1339704999700189, 1.309877099993173, 1.3816542999702506, 2.045528499991633]",,,22,001,C,2023_Feb_15_1045,student_TT_local,2021.1.4,48.06035611618135,
,"This is Section 2.

In this section, your task will be the same as before - that is, to type the word you see on the screen after the typing prompt. However, rather than just seeing the word before typing, you will also see a video of someone typing the same word you will need to type at various speeds. 

Press 'enter/return' to go to the next page.","This is Section 4. 

In this section, your task will be the same as before - that is, to type the word you see on the screen after the typing prompt. You will see a video again, like in Section 2, only this time, the video will show someone typing different words to what you must type at various speeds. 

Press 'enter/return' to go to the next page.",video&audio/Example_AOMI_layout.png,1.6,0.6,afford,19.5,20.5,video&audio/afford_touch_edited.mp4,video&audio/amount_touch_edited.mp4,breach,matrix,19.5,20.5,video&audio/vanity_touch_edited.mp4,video&audio/Sentence1_touch_edited.mp4,vanity,hinder,1 = AOMIspec,,,,,,,,,,,,,,,,,,,,,,,,,,,,,,,,,,,,,,,,,,,,,,,,,,,,,,,,,,,0,23,23,0,,,,,,,,,,,,,,,,None,,,,,,,,,,,,,,,,,,,,,,,,,None, hinder,"['h', 'i', 'n', 'd', 'e', 'r', 'return']","[0.5796387000009418, 0.8992747000302188, 1.1235941000049934, 1.475634100032039, 1.691285600012634, 2.355280200019479, 2.9640491000027396]",,,22,001,C,2023_Feb_15_1045,student_TT_local,2021.1.4,48.06035611618135,
,None,None,None,None,None,None,None,None,None,None,herbal,hippie,19.5,20.5,video&audio/sonnet_touch_edited.mp4,video&audio/Sentence3_touch_edited.mp4,sonnet,hearth,None,,,,,,,,,,,,,,,,,,,,,,,,,,,,,,,,,,,,,,,,,,,,,,,,,,,,,,,,,,,0,24,24,14,,,,,,,,,,,,,,,,None,,,,,,,,,,,,,,,,,,,,,,,,,None, hearth,"['h', 'e', 'a', 'r', 't', 'h', 'return']","[0.8942993000382558, 1.110089700028766, 1.3181421000044793, 1.3902457000222057, 2.046015100029763, 2.30213140003616, 2.886221199994907]",,,22,001,C,2023_Feb_15_1045,student_TT_local,2021.1.4,48.06035611618135,
,None,None,None,None,None,None,None,None,None,None,fusion,obsess,19.5,20.5,video&audio/sherry_touch_edited.mp4,video&audio/Sentence5_touch_edited.mp4,sherry,zephyr,None,,,,,,,,,,,,,,,,,,,,,,,,,,,,,,,,,,,,,,,,,,,,,,,,,,,,,,,,,,,0,25,25,10,,,,,,,,,,,,,,,,None,,,,,,,,,,,,,,,,,,,,,,,,,None, zephyr,"['z', 'e', 'p', 'h', 'y', 'r', 'return']","[0.8711352000245824, 1.1909205000265501, 1.4553792000515386, 2.1270386000396684, 2.423783500038553, 2.606934600044042, 3.25486169999931]",,,22,001,C,2023_Feb_15_1045,student_TT_local,2021.1.4,48.06035611618135,
,None,None,None,None,None,None,None,None,None,None,divert,kipper,6.5,7.5,video&audio/musket_TT_3X.mp4,video&audio/sentence2_TT_3X.mp4,musket,meddle,None,,,,,,,,,,,,,,,,,,,,,,,,,,,,,,,,,,,,,,,,,,,,,,,,,,,,,,,,,,,0,26,26,25,,,,,,,,,,,,,,,,None,,,,,,,,,,,,,,,,,,,,,,,,,None, meddle,"['m', 'e', 'd', 'd', 'l', 'e', 'return']","[0.6673084999783896, 0.826876099978108, 1.0348511000047438, 1.155391599982977, 1.2668195000151172, 1.3387486999854445, 1.6267900000093505]",,,22,001,C,2023_Feb_15_1045,student_TT_local,2021.1.4,48.06035611618135,
,None,None,None,None,None,None,None,None,None,None,mucous,subtle,6.5,7.5,video&audio/brazen_TT_3X.mp4,video&audio/sentence5_TT_3X.mp4,brazen,fungal,None,,,,,,,,,,,,,,,,,,,,,,,,,,,,,,,,,,,,,,,,,,,,,,,,,,,,,,,,,,,0,27,27,22,,,,,,,,,,,,,,,,None,,,,,,,,,,,,,,,,,,,,,,,,,None, fungal,"['f', 'u', 'n', 'g', 'a', 'semicolon', 'backspace', 'l', 'return']","[0.5122269000275992, 0.8480668000411242, 1.0640649000415578, 1.2719181000138633, 2.000170100014657, 2.1518962000263855, 2.9199703999911435, 3.2881534000043757, 3.768333600019105]",,,22,001,C,2023_Feb_15_1045,student_TT_local,2021.1.4,48.06035611618135,
,None,None,None,None,None,None,None,None,None,None,gullet,picket,6.5,7.5,video&audio/upkeep_TT_3X.mp4,video&audio/sentence5_TT_3X.mp4,upkeep,parish,None,,,,,,,,,,,,,,,,,,,,,,,,,,,,,,,,,,,,,,,,,,,,,,,,,,,,,,,,,,,0,28,28,28,,,,,,,,,,,,,,,,None,,,,,,,,,,,,,,,,,,,,,,,,,None, parish,"['p', 'a', 'r', 'i', 's', 'h', 'return']","[0.6864814999862574, 0.830678700003773, 1.6145327999838628, 1.7421581000089645, 1.9421991999843158, 2.062572800030466, 2.4145032000378706]",,,22,001,C,2023_Feb_15_1045,student_TT_local,2021.1.4,48.06035611618135,
,None,None,None,None,None,None,None,None,None,None,origin,falter,6.5,7.5,video&audio/potent_TT_3X.mp4,video&audio/sentence4_TT_3X.mp4,potent,tandem,None,,,,,,,,,,,,,,,,,,,,,,,,,,,,,,,,,,,,,,,,,,,,,,,,,,,,,,,,,,,0,29,29,15,,,,,,,,,,,,,,,,None,,,,,,,,,,,,,,,,,,,,,,,,,None, tandem,"['t', 'a', 'n', 'd', 'e', 'm', 'return']","[0.899858699995093, 1.0279021000023931, 1.1640317999990657, 1.3079829000052996, 1.4439846000168473, 1.532310700044036, 1.859828800021205]",,,22,001,C,2023_Feb_15_1045,student_TT_local,2021.1.4,48.06035611618135,
,,,,,,,,,,,,,,,,,,,,typingRatingScale.png,"How would you rate your typing performance in the previous section?

Press a number on your keyboard according to the rating scale below to give your answer. Your first answer will be accepted.",,,,,,,,,,,,,,,,,,,,,,,,,,,,,,,,,,,,,,,,,,,,,,,,,,,,,,,,,,,,,0,0,0,0,,,,,,,,,,,,,,,,,,,,,,,,,,,,,,,,,,,,,,,,,['4'],[4.96166179998545],22,001,C,2023_Feb_15_1045,student_TT_local,2021.1.4,48.06035611618135,
,,,,,,,,,,,,,,,,,,,,visualImageryScale.png,"While imagining yourself typing, how clear was your visual image?

Press a number on your keyboard according to the rating scale below to give your answer. Your first answer will be accepted.",,,,,,,,,,,,,,,,,,,,,,,,,,,,,,,,,,,,,,,,,,,,,,,,,,,,,,,,,,,,,0,1,1,1,,,,,,,,,,,,,,,,,,,,,,,,,,,,,,,,,,,,,,,,,['4'],[4.6137031999533065],22,001,C,2023_Feb_15_1045,student_TT_local,2021.1.4,48.06035611618135,
,,,,,,,,,,,,,,,,,,,,kinestheticImageryScale.png,"While imagining yourself typing, how intense were the sensations associated with the imagined movement?

Press a number on your keyboard according to the rating scale below to give your answer. Your first answer will be accepted.",,,,,,,,,,,,,,,,,,,,,,,,,,,,,,,,,,,,,,,,,,,,,,,,,,,,,,,,,,,,,0,2,2,2,,,,,,,,,,,,,,,,,,,,,,,,,,,,,,,,,,,,,,,,,['3'],[5.195602099993266],22,001,C,2023_Feb_15_1045,student_TT_local,2021.1.4,48.06035611618135,
