pracWords,instr_1,instr_2,AOMI_Ima,AOMI_w,AOMI_h,practiceWords,prac_time,prac_bkgd_time,pracVid_1,pracVid_2,baseline_words,control_words,cont_time,cont_bgkd_time,first_vids,second_vids,AOMIfirst_words,AOMIsecond_words,Order,ratingScale,rateInstr,instructLoop.thisRepN,instructLoop.thisTrialN,instructLoop.thisN,instructLoop.thisIndex,practice_control.thisRepN,practice_control.thisTrialN,practice_control.thisN,practice_control.thisIndex,trials_1.thisRepN,trials_1.thisTrialN,trials_1.thisN,trials_1.thisIndex,baseRateLoop.thisRepN,baseRateLoop.thisTrialN,baseRateLoop.thisN,baseRateLoop.thisIndex,AOMIinstrLoop1.thisRepN,AOMIinstrLoop1.thisTrialN,AOMIinstrLoop1.thisN,AOMIinstrLoop1.thisIndex,AOMIpracLoop.thisRepN,AOMIpracLoop.thisTrialN,AOMIpracLoop.thisN,AOMIpracLoop.thisIndex,trials_2.thisRepN,trials_2.thisTrialN,trials_2.thisN,trials_2.thisIndex,AOMI1rateLoop.thisRepN,AOMI1rateLoop.thisTrialN,AOMI1rateLoop.thisN,AOMI1rateLoop.thisIndex,contInstrLoop.thisRepN,contInstrLoop.thisTrialN,contInstrLoop.thisN,contInstrLoop.thisIndex,contPracLoop.thisRepN,contPracLoop.thisTrialN,contPracLoop.thisN,contPracLoop.thisIndex,trials_3.thisRepN,trials_3.thisTrialN,trials_3.thisN,trials_3.thisIndex,contRateLoop.thisRepN,contRateLoop.thisTrialN,contRateLoop.thisN,contRateLoop.thisIndex,AOMIinstrLoop2.thisRepN,AOMIinstrLoop2.thisTrialN,AOMIinstrLoop2.thisN,AOMIinstrLoop2.thisIndex,AOMIpracLoop2.thisRepN,AOMIpracLoop2.thisTrialN,AOMIpracLoop2.thisN,AOMIpracLoop2.thisIndex,trials_4.thisRepN,trials_4.thisTrialN,trials_4.thisN,trials_4.thisIndex,AOMI2rateLoop.thisRepN,AOMI2rateLoop.thisTrialN,AOMI2rateLoop.thisN,AOMI2rateLoop.thisIndex,pracBkgdKeys.keys,pracKeys.keys,pracKeys.rt,baseBkgdKeys.keys,base_typedWord,baseKeys.keys,baseKeys.rt,baseBkgdKeys.rt,baseRateTypeKey.keys,baseRateTypeKey.rt,AOMI1_BkgdKeys.keys,AOMI_promptBkgdKeys.keys,AOMI1pracKeys.keys,AOMI1pracKeys.rt,AOMI1bkdgKeys.keys,AOMI1_typedWord,AOMI1keys.keys,AOMI1keys.rt,AOMI1bkdgKeys.rt,AOMI1rateTypeKey.keys,AOMI1rateTypeKey.rt,polygon_prac.started,polygon_prac.stopped,contBkgdKeys_prac.keys,contPrac_typedWord,contKeys_prac.keys,contKeys_prac.rt,polygon.started,polygon.stopped,contBkgdKeys.keys,cont_typedWord,contKeys.keys,contKeys.rt,contBkgdKeys.rt,contTypeKey.keys,contTypeKey.rt,bkgdkeys_prac2.keys,bkgdKeys4.keys,AOMI2_typedWord,keyboardCom4.keys,keyboardCom4.rt,AOMI_promptBkgdKeys.rt,AOMI2typeKey.keys,AOMI2typeKey.rt,participant,session,group,date,expName,psychopyVersion,frameRate,
replay,,,,,,,,,,,,,,,,,,,,,,,,,,0,0,0,1,,,,,,,,,,,,,,,,,,,,,,,,,,,,,,,,,,,,,,,,,,,,,,,,,,,,,,,,,None,"['r', 'e', 'l', 'p', 'backspace', 'backspace', 'p', 'l', 'a', 'y', 'return']","[0.8129350999988674, 1.0454675999972096, 1.1970925999994506, 1.3568826999980956, 2.213148299997556, 2.3409178999972937, 2.9651484999994864, 3.10053109999717, 3.2205298999979277, 3.3568586999972467, 3.8768705999973463]",,,,,,,,,,,,,,,,,,,,,,,,,,,,,,,,,,,,,,,,,,23,001,D,2023_Feb_08_1648,student_TT_local,2021.1.4,61.25457954430141,
height,,,,,,,,,,,,,,,,,,,,,,,,,,0,1,1,0,,,,,,,,,,,,,,,,,,,,,,,,,,,,,,,,,,,,,,,,,,,,,,,,,,,,,,,,,None,"['e', 'i', 'g', 'h', 't', 'return']","[0.5837045000007492, 0.6637699999992037, 0.8877906999987317, 1.048111099997186, 1.1437298999990162, 1.8240079999995942]",,,,,,,,,,,,,,,,,,,,,,,,,,,,,,,,,,,,,,,,,,23,001,D,2023_Feb_08_1648,student_TT_local,2021.1.4,61.25457954430141,
update,,,,,,,,,,,,,,,,,,,,,,,,,,0,2,2,2,,,,,,,,,,,,,,,,,,,,,,,,,,,,,,,,,,,,,,,,,,,,,,,,,,,,,,,,,None,"['u', 'p', 'd', 'a', 't', 'e', 'return']","[0.46800700000312645, 0.6761130000013509, 1.075584100002743, 1.2514070000033826, 1.3318541000007826, 1.4677842000019155, 2.1797484000016993]",,,,,,,,,,,,,,,,,,,,,,,,,,,,,,,,,,,,,,,,,,23,001,D,2023_Feb_08_1648,student_TT_local,2021.1.4,61.25457954430141,
,None,None,None,None,None,None,None,None,None,None,infirm,oblige,19.5,20.5,video&audio/Sentence4_touch_edited.mp4,video&audio/mystic_touch_edited.mp4,pulpit,mystic,None,,,,,,,,,,,0,0,0,3,,,,,,,,,,,,,,,,,,,,,,,,,,,,,,,,,,,,,,,,,,,,,,,,,,,,,,,,None, infirm,"['i', 'n', 'f', 'o', 'r', 'm', 'backspace', 'backspace', 'backspace', 'i', 'r', 'm', 'return']","[0.332302200000413, 0.516209000001254, 0.6283973999998125, 0.7487827000004472, 0.8844566000007035, 1.044323499998427, 1.3246171999999206, 1.4444022999996378, 1.7887492000008933, 2.1323707999981707, 2.22875280000153, 2.3480807000014465, 2.6519793000006757]",,,,,,,,,,,,,,,,,,,,,,,,,,,,,,,,,,,,,,23,001,D,2023_Feb_08_1648,student_TT_local,2021.1.4,61.25457954430141,
,None,None,None,None,None,None,None,None,None,None,murmur,cobble,6.5,7.5,video&audio/sentence2_TT_3X.mp4,video&audio/export_TT_3X.mp4,cervix,export,None,,,,,,,,,,,0,1,1,19,,,,,,,,,,,,,,,,,,,,,,,,,,,,,,,,,,,,,,,,,,,,,,,,,,,,,,,,None, murmur,"['m', 'u', 'r', 'm', 'u', 'r', 'return']","[0.3576197000002139, 0.5977658000010706, 0.7015132999986236, 1.0535350999998627, 1.261441200000263, 1.3496615000003658, 1.7977169000005233]",,,,,,,,,,,,,,,,,,,,,,,,,,,,,,,,,,,,,,23,001,D,2023_Feb_08_1648,student_TT_local,2021.1.4,61.25457954430141,
,None,None,None,None,None,None,None,None,None,None,goblet,befall,19.5,20.5,video&audio/Sentence3_touch_edited.mp4,video&audio/ration_touch_edited.mp4,solemn,ration,None,,,,,,,,,,,0,2,2,8,,,,,,,,,,,,,,,,,,,,,,,,,,,,,,,,,,,,,,,,,,,,,,,,,,,,,,,,None, goblet,"['g', 'o', 'b', 'l', 'e', 't', 'return']","[0.8087869999981194, 0.9052297999987786, 1.072675799998251, 1.1846794999983103, 1.376821599998948, 1.5846290999979828, 1.760852799998247]",,,,,,,,,,,,,,,,,,,,,,,,,,,,,,,,,,,,,,23,001,D,2023_Feb_08_1648,student_TT_local,2021.1.4,61.25457954430141,
,None,None,None,None,None,None,None,None,None,None,legion,campus,6.5,7.5,video&audio/sentence6_TT_3X.mp4,video&audio/allure_TT_3X.mp4,forage,allure,None,,,,,,,,,,,0,3,3,29,,,,,,,,,,,,,,,,,,,,,,,,,,,,,,,,,,,,,,,,,,,,,,,,,,,,,,,,None, legion,"['l', 'e', 'g', 'i', 'o', 'n', 'return']","[0.8486511000010069, 0.9448346999997739, 1.2007510000003094, 1.2970137000011164, 1.4410850000022037, 2.328841700000339, 2.800760199999786]",,,,,,,,,,,,,,,,,,,,,,,,,,,,,,,,,,,,,,23,001,D,2023_Feb_08_1648,student_TT_local,2021.1.4,61.25457954430141,
,None,None,None,None,None,None,None,None,None,None,fodder,trench,6.5,7.5,video&audio/sentence4_TT_3X.mp4,video&audio/ethnic_TT_3X.mp4,botany,ethnic,None,,,,,,,,,,,0,4,4,27,,,,,,,,,,,,,,,,,,,,,,,,,,,,,,,,,,,,,,,,,,,,,,,,,,,,,,,,None, fodder,"['f', 'o', 'd', 'e', 'backspace', 'd', 'e', 'r', 'return']","[0.4718448999992688, 0.4961857999987842, 0.8641209000015806, 1.0480629000012414, 1.759699999998702, 1.8717710999990231, 2.159919699999591, 2.3126408999996784, 2.879923799999233]",,,,,,,,,,,,,,,,,,,,,,,,,,,,,,,,,,,,,,23,001,D,2023_Feb_08_1648,student_TT_local,2021.1.4,61.25457954430141,
,None,None,None,None,None,None,None,None,None,None,musket,meddle,6.5,7.5,video&audio/sentence2_TT_3X.mp4,video&audio/divert_TT_3X.mp4,kipper,divert,None,,,,,,,,,,,0,5,5,25,,,,,,,,,,,,,,,,,,,,,,,,,,,,,,,,,,,,,,,,,,,,,,,,,,,,,,,,None, musket,"['m', 'u', 's', 'k', 'e', 't', 'return']","[0.2728370000004361, 0.48873269999967306, 0.5527743000020564, 1.2408449000031396, 1.3368248000006133, 1.5377270000026328, 1.8807226000026276]",,,,,,,,,,,,,,,,,,,,,,,,,,,,,,,,,,,,,,23,001,D,2023_Feb_08_1648,student_TT_local,2021.1.4,61.25457954430141,
,None,None,None,None,None,None,None,None,None,None,quarry,septic,19.5,20.5,video&audio/Sentence2_touch_edited.mp4,video&audio/innate_touch_edited.mp4,neural,innate,None,,,,,,,,,,,0,6,6,13,,,,,,,,,,,,,,,,,,,,,,,,,,,,,,,,,,,,,,,,,,,,,,,,,,,,,,,,['q'], quarry,"['q', 'u', 'a', 'r', 'r', 'y', 'y', 'backspace', 'return']","[0.36069990000032703, 0.4727027000008093, 0.576687500000844, 0.9289623000004212, 1.0815110000003187, 1.320825099999638, 1.5377168000013626, 2.2333432000014, 2.4570039000027464]",[2.3641787999986263],,,,,,,,,,,,,,,,,,,,,,,,,,,,,,,,,,,,,23,001,D,2023_Feb_08_1648,student_TT_local,2021.1.4,61.25457954430141,
,None,None,None,None,None,None,None,None,None,None,sonnet,hearth,19.5,20.5,video&audio/Sentence3_touch_edited.mp4,video&audio/herbal_touch_edited.mp4,hippie,herbal,None,,,,,,,,,,,0,7,7,14,,,,,,,,,,,,,,,,,,,,,,,,,,,,,,,,,,,,,,,,,,,,,,,,,,,,,,,,None, sonnet,"['s', 'o', 'o', 'backspace', 'n', 'n', 'e', 't', 'return']","[0.374167199999647, 0.5180241999987629, 0.6216701000012108, 1.261920500000997, 1.6300492999980634, 1.797887599997921, 1.966373700000986, 2.2537684999988414, 2.789716999999655]",,,,,,,,,,,,,,,,,,,,,,,,,,,,,,,,,,,,,,23,001,D,2023_Feb_08_1648,student_TT_local,2021.1.4,61.25457954430141,
,None,None,None,None,None,None,None,None,None,None,critic,binder,19.5,20.5,video&audio/Sentence1_touch_edited.mp4,video&audio/tamper_touch_edited.mp4,confer,tamper,None,,,,,,,,,,,0,8,8,12,,,,,,,,,,,,,,,,,,,,,,,,,,,,,,,,,,,,,,,,,,,,,,,,,,,,,,,,None, critic,"['v', 'r', 'i', 'i', 'backspace', 'backspace', 'backspace', 'backspace', 'v', 'r', 'backspace', 'c', 'r', 'backspace', 'backspace', 'backspace', 'c', 'r', 't', 'i', 'backspace', 'backspace', 'i', 't', 'i', 'c', 'pound', 'backspace', 'return']","[0.4715260000011767, 0.6553877000005741, 0.8078242000010505, 0.9835999000024458, 1.3522874000009324, 1.4795981000024767, 1.6238551999995252, 1.9195700000018405, 2.0560543999999936, 2.2477122000018426, 2.7756052000004274, 2.943297600002552, 3.1679074999992736, 4.08740360000229, 4.231386800001928, 4.375912499999686, 4.583748100001685, 4.775738399999682, 5.127485299999535, 5.255287600000884, 5.671981700001197, 5.79948300000251, 6.047341600002255, 6.167354200002592, 6.703484199999366, 6.823828799999319, 7.239354600002116, 7.959355700000742, 8.168348100000003]",,,,,,,,,,,,,,,,,,,,,,,,,,,,,,,,,,,,,,23,001,D,2023_Feb_08_1648,student_TT_local,2021.1.4,61.25457954430141,
,None,None,None,None,None,None,None,None,None,None,ordain,patent,19.5,20.5,video&audio/Sentence6_touch_edited.mp4,video&audio/defame_touch_edited.mp4,covert,defame,None,,,,,,,,,,,0,9,9,11,,,,,,,,,,,,,,,,,,,,,,,,,,,,,,,,,,,,,,,,,,,,,,,,,,,,,,,,None, ordain,"['o', 'd', 'r', 'backspace', 'backspace', 'r', 'd', 'i', 'backspace', 'a', 'i', 'n', 'return']","[0.39780030000110855, 0.7013899000012316, 0.8860004000016488, 1.0785547000014049, 1.2144933999989007, 1.3335398000017449, 1.725646400002006, 1.9742700999995577, 2.301514099999622, 2.3978322000002663, 2.5262599000016053, 2.9654891999998654, 3.4773714000002656]",,,,,,,,,,,,,,,,,,,,,,,,,,,,,,,,,,,,,,23,001,D,2023_Feb_08_1648,student_TT_local,2021.1.4,61.25457954430141,
,None,None,None,None,None,None,None,None,None,None,upkeep,parish,6.5,7.5,video&audio/sentence5_TT_3X.mp4,video&audio/gullet_TT_3X.mp4,picket,gullet,None,,,,,,,,,,,0,10,10,28,,,,,,,,,,,,,,,,,,,,,,,,,,,,,,,,,,,,,,,,,,,,,,,,,,,,,,,,None, upkeep,"['u', 'p', 'k', 'e', 'e', 'p', 'return']","[0.3537904000004346, 0.5540746999977273, 0.8099404999993567, 1.2342198000005737, 1.442042599999695, 1.5545277999990503, 1.9147880999989866]",,,,,,,,,,,,,,,,,,,,,,,,,,,,,,,,,,,,,,23,001,D,2023_Feb_08_1648,student_TT_local,2021.1.4,61.25457954430141,
,None,None,None,None,None,None,None,None,None,None,parole,hamlet,19.5,20.5,video&audio/Sentence4_touch_edited.mp4,video&audio/shroud_touch_edited.mp4,jackal,shroud,None,,,,,,,,,,,0,11,11,9,,,,,,,,,,,,,,,,,,,,,,,,,,,,,,,,,,,,,,,,,,,,,,,,,,,,,,,,None, parole,"['bracketleft', 'a', 'backspace', 'backspace', 'p', 'a', 'r', 'o', 'l', 'e', 'return']","[0.341900399998849, 0.477515399998083, 0.925323200001003, 1.062329199998203, 1.6771862999994482, 3.037410799999634, 3.3015716999980214, 3.398374299998977, 3.5501020000010612, 3.6451411999987613, 4.397808599998825]",,,,,,,,,,,,,,,,,,,,,,,,,,,,,,,,,,,,,,23,001,D,2023_Feb_08_1648,student_TT_local,2021.1.4,61.25457954430141,
,None,None,None,None,None,None,None,None,None,None,convoy,output,6.5,7.5,video&audio/sentence1_TT_3X.mp4,video&audio/uphold_TT_3X.mp4,debtor,uphold,None,,,,,,,,,,,0,12,12,18,,,,,,,,,,,,,,,,,,,,,,,,,,,,,,,,,,,,,,,,,,,,,,,,,,,,,,,,None, convoy,"['c', 'o', 'n', 'j', 'backspace', 'b', 'o', 'y', 'backspace', 'backspace', 'backspace', 'n', 'backspace', 'v', 'o', 'y', 'return']","[0.3128274999980931, 0.3537670000005164, 0.7846752000004926, 0.9606190000013157, 1.6653722999981255, 1.8647354999993695, 1.9526450000012119, 2.1685213999990083, 2.424667799998133, 2.560701999998855, 2.680627800000366, 3.0405427000005147, 3.5447113000009267, 3.8566448999990826, 4.008555199998227, 4.232400100001541, 4.424544099998457]",,,,,,,,,,,,,,,,,,,,,,,,,,,,,,,,,,,,,,23,001,D,2023_Feb_08_1648,student_TT_local,2021.1.4,61.25457954430141,
,"While you watch the video, imagine yourself typing the word on the screen, like how you did in the imagery practice. While you watch the video and imagine this, rest your hands on your keyboard but DO NOT type until AFTER you see the typing prompt.

Press 'enter/return' to go to the next page.","While watching the video, imagine yourself typing the word on the screen, like how you did in the imagery practice. While you watch the video and imagine this, rest your hands on your keyboard but DO NOT type until AFTER you see the typing prompt.

Press 'enter/return' to go to the next page.",video&audio/Example_AOMI_imagine.png,1.6,1,butter,6.5,7.5,video&audio/amount_TT_3X.mp4,video&audio/butter_TT_3X.mp4,plight,metric,19.5,20.5,video&audio/Sentence2_touch_edited.mp4,video&audio/eatery_touch_edited.mp4,ascend,eatery,2 = AOMIspec,,,,,,,,,,,0,13,13,1,,,,,,,,,,,,,,,,,,,,,,,,,,,,,,,,,,,,,,,,,,,,,,,,,,,,,,,,None, plight,"['p', 'l', 'semicolon', 'backspace', 'l', 'i', 'g', 'h', 't', 'return']","[0.598163000002387, 0.7577503000029537, 0.7662858000003325, 1.2379338000027929, 1.4694718999999168, 2.197707100000116, 2.366393700001936, 2.509970000002795, 3.0217403000024206, 3.469623600001796]",,,,,,,,,,,,,,,,,,,,,,,,,,,,,,,,,,,,,,23,001,D,2023_Feb_08_1648,student_TT_local,2021.1.4,61.25457954430141,
,"Remember to type as QUICKLY and ACCURATELY as possible after the 'get ready' prompt.

Ask the experimenter any questions now. Please put on the headphones.

You will get one practice trial. Press 'enter/return' when you are ready to start the practice.","Remember to type as QUICKLY and ACCURATELY as you can after the 'get ready' prompt.

Ask the experimenter any questions now. Please put on the headphones.

You will get one practice trial. Press 'enter/return' when you are ready to start the practice.",video&audio/Example_AOMI_total.png,1.8,0.7,None,None,None,None,None,jargon,oppose,19.5,20.5,video&audio/Sentence3_touch_edited.mp4,video&audio/ghetto_touch_edited.mp4,frugal,ghetto,None,,,,,,,,,,,0,14,14,2,,,,,,,,,,,,,,,,,,,,,,,,,,,,,,,,,,,,,,,,,,,,,,,,,,,,,,,,None, jargon,"['j', 'a', 'r', 'g', 'o', 'n', 'pound', 'backspace', 'return']","[0.4129566000010527, 0.5490444000024581, 0.7891367000011087, 1.1251933000021381, 1.2216678000004322, 1.3728735000004235, 1.7733731000007538, 2.2931748000009975, 2.5248438000016904]",,,,,,,,,,,,,,,,,,,,,,,,,,,,,,,,,,,,,,23,001,D,2023_Feb_08_1648,student_TT_local,2021.1.4,61.25457954430141,
,None,None,None,None,None,None,None,None,None,None,potent,tandem,6.5,7.5,video&audio/sentence4_TT_3X.mp4,video&audio/origin_TT_3X.mp4,falter,origin,None,,,,,,,,,,,0,15,15,15,,,,,,,,,,,,,,,,,,,,,,,,,,,,,,,,,,,,,,,,,,,,,,,,,,,,,,,,None, potent,"['o', 't', 'backspace', 'backspace', 'bracketleft', 'backspace', 'p', 'o', 't', 'e', 'n', 't', 'pound', 'backspace', 'return']","[0.35659340000347584, 0.5725328000007721, 1.124898400001257, 1.380468800001836, 1.668355600002542, 2.204949700000725, 2.556367600001977, 2.708552800002508, 3.0454070000014326, 3.228568800001085, 3.580534800003079, 3.668324300000677, 4.221414700001333, 4.884241600000678, 5.060715400002664]",,,,,,,,,,,,,,,,,,,,,,,,,,,,,,,,,,,,,,23,001,D,2023_Feb_08_1648,student_TT_local,2021.1.4,61.25457954430141,
,None,None,None,None,None,None,None,None,None,None,mirage,shrewd,19.5,20.5,video&audio/Sentence1_touch_edited.mp4,video&audio/revoke_touch_edited.mp4,malady,revoke,None,,,,,,,,,,,0,16,16,6,,,,,,,,,,,,,,,,,,,,,,,,,,,,,,,,,,,,,,,,,,,,,,,,,,,,,,,,None, mirage,"['m', 'i', 'r', 'a', 'g', 'e', 'return']","[0.25131989999863436, 0.5152937999991991, 0.6427651000012702, 0.8748182999988785, 0.9947510000019975, 1.1469949000020279, 1.7712133999993966]",,,,,,,,,,,,,,,,,,,,,,,,,,,,,,,,,,,,,,23,001,D,2023_Feb_08_1648,student_TT_local,2021.1.4,61.25457954430141,
,None,None,None,None,None,None,None,None,None,None,impose,feudal,6.5,7.5,video&audio/sentence3_TT_3X.mp4,video&audio/matron_TT_3X.mp4,subdue,matron,None,,,,,,,,,,,0,17,17,26,,,,,,,,,,,,,,,,,,,,,,,,,,,,,,,,,,,,,,,,,,,,,,,,,,,,,,,,None, impose,"['i', 'm', 'p', 'o', 's', 'e', 'return']","[0.27138900000136346, 0.4866674000004423, 0.7031277999994927, 0.9910627999997814, 1.2306883999990532, 1.390701699998317, 1.5588889999999083]",,,,,,,,,,,,,,,,,,,,,,,,,,,,,,,,,,,,,,23,001,D,2023_Feb_08_1648,student_TT_local,2021.1.4,61.25457954430141,
,None,None,None,None,None,None,None,None,None,None,brazen,fungal,6.5,7.5,video&audio/sentence5_TT_3X.mp4,video&audio/mucous_TT_3X.mp4,subtle,mucous,None,,,,,,,,,,,0,18,18,22,,,,,,,,,,,,,,,,,,,,,,,,,,,,,,,,,,,,,,,,,,,,,,,,,,,,,,,,None, brazen,"['b', 'r', 'a', 'backslash', 'backspace', 'backslash', 'backspace', 'z', 'e', 'n', 'pound', 'backspace', 'return']","[0.2806997000006959, 0.4728603000003204, 0.6901551000009931, 1.6092731000026106, 2.456907300002058, 2.568625300002168, 3.144774899999902, 3.505102300001454, 3.8489434000002802, 3.9687494999998307, 4.2888278999998874, 4.848765200000344, 5.0647065000011935]",,,,,,,,,,,,,,,,,,,,,,,,,,,,,,,,,,,,,,23,001,D,2023_Feb_08_1648,student_TT_local,2021.1.4,61.25457954430141,
,None,None,None,None,None,None,None,None,None,None,coerce,clergy,6.5,7.5,video&audio/sentence6_TT_3X.mp4,video&audio/portal_TT_3X.mp4,ritual,portal,None,,,,,,,,,,,0,19,19,17,,,,,,,,,,,,,,,,,,,,,,,,,,,,,,,,,,,,,,,,,,,,,,,,,,,,,,,,None, coerce,"['c', 'o', 'e', 'r', 'c', 'e', 'return']","[0.38716419999764184, 0.5070496999978786, 0.9153608999986318, 1.067433299998811, 1.3309450999986439, 1.4910795999967377, 2.1629749999992782]",,,,,,,,,,,,,,,,,,,,,,,,,,,,,,,,,,,,,,23,001,D,2023_Feb_08_1648,student_TT_local,2021.1.4,61.25457954430141,
,None,None,None,None,None,None,None,None,None,None,savant,induce,6.5,7.5,video&audio/sentence4_TT_3X.mp4,video&audio/mussel_TT_3X.mp4,cortex,mussel,None,,,,,,,,,,,0,20,20,21,,,,,,,,,,,,,,,,,,,,,,,,,,,,,,,,,,,,,,,,,,,,,,,,,,,,,,,,None, savant,"['s', 'a', 'c', 'e', 'backspace', 'backspace', 'v', 'e', 'n', 't', 'backspace', 'backspace', 'backspace', 'backspace', 'v', 'a', 'n', 't', 'return']","[0.25657979999959935, 0.45673030000034487, 0.9687994000014442, 1.192845400000806, 1.649146900002961, 1.7847729999994044, 1.976559000002453, 2.1925532999994175, 2.3048287000019627, 2.512716100001853, 2.7534833000026993, 2.888930799999798, 2.985322800002905, 3.11270069999955, 4.209197700001823, 4.385353699999541, 4.600701200000913, 4.728275600002235, 4.936907100000099]",,,,,,,,,,,,,,,,,,,,,,,,,,,,,,,,,,,,,,23,001,D,2023_Feb_08_1648,student_TT_local,2021.1.4,61.25457954430141,
,None,None,None,None,None,None,None,None,None,None,pursue,caviar,6.5,7.5,video&audio/sentence3_TT_3X.mp4,video&audio/shrill_TT_3X.mp4,piston,shrill,None,,,,,,,,,,,0,21,21,20,,,,,,,,,,,,,,,,,,,,,,,,,,,,,,,,,,,,,,,,,,,,,,,,,,,,,,,,None, pursue,"['p', 'u', 'r', 's', 'u', 'e', 'pound', 'backspace', 'return']","[0.3074708999993163, 0.5236691999998584, 0.6594638999995368, 1.179230000001553, 1.547141900002316, 1.6515837000006286, 2.1081316999989212, 2.571787000000768, 2.8034225000010338]",,,,,,,,,,,,,,,,,,,,,,,,,,,,,,,,,,,,,,23,001,D,2023_Feb_08_1648,student_TT_local,2021.1.4,61.25457954430141,
,None,None,None,None,None,None,None,None,None,None,novice,primal,19.5,20.5,video&audio/Sentence5_touch_edited.mp4,video&audio/entail_touch_edited.mp4,parcel,entail,None,,,,,,,,,,,0,22,22,4,,,,,,,,,,,,,,,,,,,,,,,,,,,,,,,,,,,,,,,,,,,,,,,,,,,,,,,,None, novice,"['n', 'o', 'v', 'i', 'c', 'e', 'return']","[0.2579881000019668, 0.4101912000005541, 0.47416250000242144, 0.961884899999859, 1.2506157000025269, 1.4580066000016814, 1.5779995000011695]",,,,,,,,,,,,,,,,,,,,,,,,,,,,,,,,,,,,,,23,001,D,2023_Feb_08_1648,student_TT_local,2021.1.4,61.25457954430141,
,None,None,None,None,None,None,None,None,None,None,sherry,zephyr,19.5,20.5,video&audio/Sentence5_touch_edited.mp4,video&audio/fusion_touch_edited.mp4,obsess,fusion,None,,,,,,,,,,,0,23,23,10,,,,,,,,,,,,,,,,,,,,,,,,,,,,,,,,,,,,,,,,,,,,,,,,,,,,,,,,None, sherry,"['s', 'h', 'e', 'r', 'r', 't', 't', 'backspace', 'backspace', 'y', 'return']","[0.27479509999830043, 0.3393231000009109, 0.6350959000010334, 1.114697500001057, 1.2675686000002315, 1.5953459999982442, 1.7549522000008437, 2.083301800001209, 2.2279180000005, 2.411442900000111, 2.794983700001467]",,,,,,,,,,,,,,,,,,,,,,,,,,,,,,,,,,,,,,23,001,D,2023_Feb_08_1648,student_TT_local,2021.1.4,61.25457954430141,
,None,None,None,None,None,None,None,None,None,None,manure,girdle,6.5,7.5,video&audio/sentence6_TT_3X.mp4,video&audio/linear_TT_3X.mp4,belfry,linear,None,,,,,,,,,,,0,24,24,23,,,,,,,,,,,,,,,,,,,,,,,,,,,,,,,,,,,,,,,,,,,,,,,,,,,,,,,,None, manure,"['m', 'a', 'n', 'u', 'e', 'w', 'backspace', 'backspace', 'r', 'e', 'return']","[0.3452060000017809, 0.46524850000059814, 0.6092153999998118, 0.8409816999992472, 1.3451439999989816, 1.5288896000020031, 2.016917299999477, 2.1610815999993065, 2.265245999999024, 2.456955300000118, 2.688908200001606]",,,,,,,,,,,,,,,,,,,,,,,,,,,,,,,,,,,,,,23,001,D,2023_Feb_08_1648,student_TT_local,2021.1.4,61.25457954430141,
,None,None,None,None,None,None,None,None,None,None,strife,delude,19.5,20.5,video&audio/Sentence2_touch_edited.mp4,video&audio/galley_touch_edited.mp4,tariff,galley,None,,,,,,,,,,,0,25,25,7,,,,,,,,,,,,,,,,,,,,,,,,,,,,,,,,,,,,,,,,,,,,,,,,,,,,,,,,None, strife,"['s', 'r', 'backspace', 't', 'r', 'i', 'f', 'e', 'return']","[0.3881117999990238, 0.6994623999999021, 1.099533500000689, 1.363852800001041, 1.515474499999982, 1.6441789000018616, 1.7635341999994125, 1.9397884999998496, 2.2755606999999145]",,,,,,,,,,,,,,,,,,,,,,,,,,,,,,,,,,,,,,23,001,D,2023_Feb_08_1648,student_TT_local,2021.1.4,61.25457954430141,
,"This is Section 2.

In this section, your task will be the same as before - that is, to type the word you see on the screen AFTER the typing prompt. However, rather than just seeing the word before typing, you will also see a video of someone typing different words to what you will need to type at different speeds. 

Press 'enter/return' to go to the next page.","This is Section 4. 

In this section, your task will be the same as before - that is, to type the word you see on the screen after the typing prompt. You will see a video again, like in Section 2, only this time, the video will show someone the same word that you must type at different speeds. 

Press 'enter/return' to go to the next page.",video&audio/Example_AOMI_layout.png,1.6,0.6,afford,19.5,20.5,video&audio/amount_touch_edited.mp4,video&audio/afford_touch_edited.mp4,vanity,hinder,19.5,20.5,video&audio/Sentence1_touch_edited.mp4,video&audio/breach_touch_edited.mp4,matrix,breach,1 = AOMIgen,,,,,,,,,,,0,26,26,0,,,,,,,,,,,,,,,,,,,,,,,,,,,,,,,,,,,,,,,,,,,,,,,,,,,,,,,,None, vanity,"['v', 'a', 's', 'n', 't', 'backspace', 'i', 't', 'y', 'return']","[0.13137080000160495, 0.387885300002381, 0.3957707000008668, 0.8920432000013534, 1.1475718000001507, 1.5394784000018262, 1.779432999999699, 1.8842482000000018, 1.987830900001427, 2.4365409999991243]",,,,,,,,,,,,,,,,,,,,,,,,,,,,,,,,,,,,,,23,001,D,2023_Feb_08_1648,student_TT_local,2021.1.4,61.25457954430141,
,None,None,None,None,None,None,None,None,None,None,revolt,joiner,19.5,20.5,video&audio/Sentence6_touch_edited.mp4,video&audio/apathy_touch_edited.mp4,virile,apathy,None,,,,,,,,,,,0,27,27,5,,,,,,,,,,,,,,,,,,,,,,,,,,,,,,,,,,,,,,,,,,,,,,,,,,,,,,,,None, revolt,"['r', 'e', 'v', 'o', 'l', 't', 'return']","[0.6158674999969662, 0.7913615999968897, 1.040160399999877, 1.135314399998606, 1.295794300000125, 1.3595753999979934, 1.6966308999981266]",,,,,,,,,,,,,,,,,,,,,,,,,,,,,,,,,,,,,,23,001,D,2023_Feb_08_1648,student_TT_local,2021.1.4,61.25457954430141,
,None,None,None,None,None,None,None,None,None,None,satire,mangle,6.5,7.5,video&audio/sentence1_TT_3X.mp4,video&audio/warble_TT_3X.mp4,devise,warble,None,,,,,,,,,,,0,28,28,24,,,,,,,,,,,,,,,,,,,,,,,,,,,,,,,,,,,,,,,,,,,,,,,,,,,,,,,,None, satire,"['s', 'a', 't', 'i', 'r', 'e', 'return']","[0.3776176999999734, 1.2976944999973057, 1.6344413999977405, 1.7453811999985192, 1.8498841000000539, 1.9937059999974736, 2.401540599999862]",,,,,,,,,,,,,,,,,,,,,,,,,,,,,,,,,,,,,,23,001,D,2023_Feb_08_1648,student_TT_local,2021.1.4,61.25457954430141,
,None,None,None,None,None,None,None,None,None,None,deduct,jailer,6.5,7.5,video&audio/sentence5_TT_3X.mp4,video&audio/nettle_TT_3X.mp4,plasma,nettle,None,,,,,,,,,,,0,29,29,16,,,,,,,,,,,,,,,,,,,,,,,,,,,,,,,,,,,,,,,,,,,,,,,,,,,,,,,,None, deduct,"['d', 'e', 'd', 'u', 'u', 'c', 'backspace', 'backspace', 'c', 't', 'return']","[0.36788349999915226, 0.56756310000128, 0.9355447999987518, 1.1366109999980836, 1.3198725000002014, 1.5757459999986168, 1.7998081000005186, 1.9436142000013206, 2.0313365000001795, 2.743317399999796, 2.935572399997909]",,,,,,,,,,,,,,,,,,,,,,,,,,,,,,,,,,,,,,23,001,D,2023_Feb_08_1648,student_TT_local,2021.1.4,61.25457954430141,
,,,,,,,,,,,,,,,,,,,,typingRatingScale.png,"How would you rate your typing performance in the previous section?

Press a number on your keyboard according to the rating scale below to give your answer. Your first answer will be accepted.",,,,,,,,,,,,,0,0,0,0,,,,,,,,,,,,,,,,,,,,,,,,,,,,,,,,,,,,,,,,,,,,,,,,,,,,,,,,,['2'],[22.279982899999595],,,,,,,,,,,,,,,,,,,,,,,,,,,,,,,,,,,23,001,D,2023_Feb_08_1648,student_TT_local,2021.1.4,61.25457954430141,
,,,,,,,,,,,,,,,,,,,,imageryCheckScale.png,"In the previous section did you imagine yourself typing?

Press a number on your keyboard according to the rating scale below to give your answer. Your first answer will be accepted.",,,,,,,,,,,,,0,1,1,1,,,,,,,,,,,,,,,,,,,,,,,,,,,,,,,,,,,,,,,,,,,,,,,,,,,,,,,,,['2'],[7.3930585000016436],,,,,,,,,,,,,,,,,,,,,,,,,,,,,,,,,,,23,001,D,2023_Feb_08_1648,student_TT_local,2021.1.4,61.25457954430141,
,None,None,None,None,None,None,None,None,None,None,quarry,septic,19.5,20.5,video&audio/Sentence2_touch_edited.mp4,video&audio/innate_touch_edited.mp4,neural,innate,None,,,,,,,,,,,,,,,,,,,,,,,,,,,0,0,0,13,,,,,,,,,,,,,,,,,,,,,,,,,,,,,,,,,,,,,,,,,,,,,,,None,None,"['b', 'u', 't', 'e', 'r', 'backspace', 'backspace', 't', 'e', 'r', 'return']","[0.42227420000199345, 0.6308524999985821, 1.1508782000018982, 1.3423967999988236, 1.502386200001638, 1.9582965000008699, 2.0867763999995077, 2.2148794999993697, 2.4143556999988505, 2.5344956000008096, 3.023016800001642]",None, neural,"['n', 'e', 'u', 'r', 'a', 'l', 'return']","[0.33525039999949513, 0.5521325000008801, 0.7834541999982321, 1.159769800000504, 1.399510299997928, 1.5035749999988184, 2.1841624999979103]",,,,,,,,,,,,,,,,,,,,,,,,,,,23,001,D,2023_Feb_08_1648,student_TT_local,2021.1.4,61.25457954430141,
,None,None,None,None,None,None,None,None,None,None,coerce,clergy,6.5,7.5,video&audio/sentence6_TT_3X.mp4,video&audio/portal_TT_3X.mp4,ritual,portal,None,,,,,,,,,,,,,,,,,,,,,,,,,,,0,1,1,17,,,,,,,,,,,,,,,,,,,,,,,,,,,,,,,,,,,,,,,,,,,,,,,,None,,,['return'], ritual,"['r', 'i', 't', 'u', 'a', 'l', 'return']","[0.35664989999713725, 0.445276799997373, 0.5808545999971102, 0.6684252999984892, 1.148637399997824, 1.3486210999981267, 1.7725162999995518]",[0.16499860000112676],,,,,,,,,,,,,,,,,,,,,,,,,,23,001,D,2023_Feb_08_1648,student_TT_local,2021.1.4,61.25457954430141,
,None,None,None,None,None,None,None,None,None,None,novice,primal,19.5,20.5,video&audio/Sentence5_touch_edited.mp4,video&audio/entail_touch_edited.mp4,parcel,entail,None,,,,,,,,,,,,,,,,,,,,,,,,,,,0,2,2,4,,,,,,,,,,,,,,,,,,,,,,,,,,,,,,,,,,,,,,,,,,,,,,,,None,,,None, parcel,"['o', 'bracketleft', 'a', 'backspace', 'backspace', 'p', 'a', 'r', 'c', 'e', 'l', 'return']","[0.75711389999924, 0.7653409000013198, 0.7809598000021651, 1.3256615000027523, 1.4774117000015394, 1.9735177000002295, 2.429025500001444, 2.6528876000011223, 2.988951700001053, 3.2049465000018245, 3.429302700002154, 3.7975251999996544]",,,,,,,,,,,,,,,,,,,,,,,,,,,23,001,D,2023_Feb_08_1648,student_TT_local,2021.1.4,61.25457954430141,
,None,None,None,None,None,None,None,None,None,None,impose,feudal,6.5,7.5,video&audio/sentence3_TT_3X.mp4,video&audio/matron_TT_3X.mp4,subdue,matron,None,,,,,,,,,,,,,,,,,,,,,,,,,,,0,3,3,26,,,,,,,,,,,,,,,,,,,,,,,,,,,,,,,,,,,,,,,,,,,,,,,,None,,,None, subdue,"['s', 'u', 'b', 'd', 'e', 'backspace', 'e', 'u', 'backspace', 'backspace', 'u', 'e', 'return']","[0.2603034999992815, 0.32419630000003963, 0.5404428000001644, 0.5721425999981875, 0.8523625999987416, 1.4599748000000545, 1.7559237999994366, 1.916870299999573, 2.3078358999991906, 2.6769280999978946, 2.891920399997616, 3.0038343999985955, 3.3973623999991105]",,,,,,,,,,,,,,,,,,,,,,,,,,,23,001,D,2023_Feb_08_1648,student_TT_local,2021.1.4,61.25457954430141,
,None,None,None,None,None,None,None,None,None,None,strife,delude,19.5,20.5,video&audio/Sentence2_touch_edited.mp4,video&audio/galley_touch_edited.mp4,tariff,galley,None,,,,,,,,,,,,,,,,,,,,,,,,,,,0,4,4,7,,,,,,,,,,,,,,,,,,,,,,,,,,,,,,,,,,,,,,,,,,,,,,,,None,,,None, tariff,"['t', 'd', 'a', 'backspace', 'backspace', 'a', 'r', 'o', 'f', 'backspace', 'backspace', 'i', 'f', 'f', 'return']","[0.8918747999996413, 1.2045163000002503, 1.5318809999989753, 1.8756193999979587, 2.051880999999412, 2.236179899999115, 2.6045195999977295, 2.924208500000532, 3.172582199997123, 3.395642499999667, 3.5156828999970458, 4.171857599998475, 4.2839593999997305, 4.476365200000146, 4.756309299998975]",,,,,,,,,,,,,,,,,,,,,,,,,,,23,001,D,2023_Feb_08_1648,student_TT_local,2021.1.4,61.25457954430141,
,None,None,None,None,None,None,None,None,None,None,parole,hamlet,19.5,20.5,video&audio/Sentence4_touch_edited.mp4,video&audio/shroud_touch_edited.mp4,jackal,shroud,None,,,,,,,,,,,,,,,,,,,,,,,,,,,0,5,5,9,,,,,,,,,,,,,,,,,,,,,,,,,,,,,,,,,,,,,,,,,,,,,,,,None,,,None, jackal,"['j', 'a', 'c', 'k', 'e', 'a', 'backspace', 'backspace', 'a', 'l', 'return']","[0.36077669999940554, 0.4727426000026753, 2.0645227000022714, 2.2647225000000617, 2.4569521000012173, 2.92891050000253, 3.4645216000026267, 3.8970554000006814, 4.160816999999952, 4.360715700000583, 4.904655900001671]",,,,,,,,,,,,,,,,,,,,,,,,,,,23,001,D,2023_Feb_08_1648,student_TT_local,2021.1.4,61.25457954430141,
,None,None,None,None,None,None,None,None,None,None,sherry,zephyr,19.5,20.5,video&audio/Sentence5_touch_edited.mp4,video&audio/fusion_touch_edited.mp4,obsess,fusion,None,,,,,,,,,,,,,,,,,,,,,,,,,,,0,6,6,10,,,,,,,,,,,,,,,,,,,,,,,,,,,,,,,,,,,,,,,,,,,,,,,,None,,,None, obsess,"['o', 'b', 's', 'e', 'e', 'backspace', 's', 's', 'return']","[0.09855679999964195, 0.4021093000010296, 0.7787605000012263, 1.235460800002329, 1.4188159000004816, 1.754176300000836, 1.9624815000024682, 2.1150605000002543, 2.4908869999999297]",,,,,,,,,,,,,,,,,,,,,,,,,,,23,001,D,2023_Feb_08_1648,student_TT_local,2021.1.4,61.25457954430141,
,"This is Section 2.

In this section, your task will be the same as before - that is, to type the word you see on the screen AFTER the typing prompt. However, rather than just seeing the word before typing, you will also see a video of someone typing different words to what you will need to type at different speeds. 

Press 'enter/return' to go to the next page.","This is Section 4. 

In this section, your task will be the same as before - that is, to type the word you see on the screen after the typing prompt. You will see a video again, like in Section 2, only this time, the video will show someone the same word that you must type at different speeds. 

Press 'enter/return' to go to the next page.",video&audio/Example_AOMI_layout.png,1.6,0.6,afford,19.5,20.5,video&audio/amount_touch_edited.mp4,video&audio/afford_touch_edited.mp4,vanity,hinder,19.5,20.5,video&audio/Sentence1_touch_edited.mp4,video&audio/breach_touch_edited.mp4,matrix,breach,1 = AOMIgen,,,,,,,,,,,,,,,,,,,,,,,,,,,0,7,7,0,,,,,,,,,,,,,,,,,,,,,,,,,,,,,,,,,,,,,,,,,,,,,,,,None,,,None, matrix,"['m', 'a', 't', 'i', 'r', 'backspace', 'backspace', 'r', 'i', 'x', 'return']","[0.8175019000009343, 0.9626477999991039, 1.4738145000010263, 1.921827599999233, 2.018186400000559, 2.2105138000006264, 2.3381402000013622, 2.457648600000539, 2.61773340000218, 3.0268801000020176, 3.3456076000002213]",,,,,,,,,,,,,,,,,,,,,,,,,,,23,001,D,2023_Feb_08_1648,student_TT_local,2021.1.4,61.25457954430141,
,None,None,None,None,None,None,None,None,None,None,pursue,caviar,6.5,7.5,video&audio/sentence3_TT_3X.mp4,video&audio/shrill_TT_3X.mp4,piston,shrill,None,,,,,,,,,,,,,,,,,,,,,,,,,,,0,8,8,20,,,,,,,,,,,,,,,,,,,,,,,,,,,,,,,,,,,,,,,,,,,,,,,,None,,,None, piston,"['d', 'backspace', 'backspace', 'bracketleft', 'i', 's', 'd', 'backspace', 's', 't', 'o', 'n', 'backspace', 'backspace', 'backspace', 'backspace', 'backspace', 'backspace', 'p', 'i', 's', 't', 'o', 'n', 'return']","[0.3431553999980679, 0.662375100000645, 0.7829934000001231, 1.286529299999529, 1.5264815999980783, 1.735268399999768, 1.742576000000554, 2.22282119999727, 2.318862699998135, 2.5745131999974546, 2.678939299999911, 2.8384421999980987, 3.198606199999631, 3.4064419999995152, 3.550314199997956, 3.710416099998838, 3.839227699998446, 3.983085100000608, 4.487220099999831, 4.695003599998017, 4.814414000000397, 5.102859999999055, 5.183709999997518, 5.3264894999992975, 5.622839100000419]",,,,,,,,,,,,,,,,,,,,,,,,,,,23,001,D,2023_Feb_08_1648,student_TT_local,2021.1.4,61.25457954430141,
,None,None,None,None,None,None,None,None,None,None,manure,girdle,6.5,7.5,video&audio/sentence6_TT_3X.mp4,video&audio/linear_TT_3X.mp4,belfry,linear,None,,,,,,,,,,,,,,,,,,,,,,,,,,,0,9,9,23,,,,,,,,,,,,,,,,,,,,,,,,,,,,,,,,,,,,,,,,,,,,,,,,None,,,None, belfry,"['b', 'e', 'l', 'f', 't', 'backspace', 'r', 'y', 'return']","[0.3885532999993302, 0.532778299999336, 0.7005949000013061, 0.8846063999990292, 1.116528599999583, 1.4617483000001812, 1.5087999000024865, 1.732769800000824, 1.9165756000002148]",,,,,,,,,,,,,,,,,,,,,,,,,,,23,001,D,2023_Feb_08_1648,student_TT_local,2021.1.4,61.25457954430141,
,None,None,None,None,None,None,None,None,None,None,fodder,trench,6.5,7.5,video&audio/sentence4_TT_3X.mp4,video&audio/ethnic_TT_3X.mp4,botany,ethnic,None,,,,,,,,,,,,,,,,,,,,,,,,,,,0,10,10,27,,,,,,,,,,,,,,,,,,,,,,,,,,,,,,,,,,,,,,,,,,,,,,,,None,,,None, botant,"['b', 'o', 't', 's', 'n', 'y', 'backspace', 'backspace', 'backspace', 'a', 'n', 't', 'return']","[0.32985719999851426, 0.5139629000004788, 1.1697984999991604, 1.3934472000000824, 1.4259987000004912, 1.609672300000966, 1.9939068999992742, 2.121531100001448, 2.2421452999988105, 2.3696348999983456, 2.521221899998636, 2.6656049999983225, 2.9613155000006373]",,,,,,,,,,,,,,,,,,,,,,,,,,,23,001,D,2023_Feb_08_1648,student_TT_local,2021.1.4,61.25457954430141,
,None,None,None,None,None,None,None,None,None,None,revolt,joiner,19.5,20.5,video&audio/Sentence6_touch_edited.mp4,video&audio/apathy_touch_edited.mp4,virile,apathy,None,,,,,,,,,,,,,,,,,,,,,,,,,,,0,11,11,5,,,,,,,,,,,,,,,,,,,,,,,,,,,,,,,,,,,,,,,,,,,,,,,,None,,,['backspace'], virile,"['v', 'i', 'r', 'i', 'l', 'e', 'return']","[0.9311404000000039, 1.0349083000000974, 1.1709178000019165, 1.586899900001299, 1.7953697000011744, 1.9233787000011944, 2.307512000003044]",[0.14780869999958668],,,,,,,,,,,,,,,,,,,,,,,,,,23,001,D,2023_Feb_08_1648,student_TT_local,2021.1.4,61.25457954430141,
,None,None,None,None,None,None,None,None,None,None,ordain,patent,19.5,20.5,video&audio/Sentence6_touch_edited.mp4,video&audio/defame_touch_edited.mp4,covert,defame,None,,,,,,,,,,,,,,,,,,,,,,,,,,,0,12,12,11,,,,,,,,,,,,,,,,,,,,,,,,,,,,,,,,,,,,,,,,,,,,,,,,None,,,None, coovert,"['c', 'i', 'v', 'e', 'r', 't', 'backspace', 'backspace', 'backspace', 'backspace', 'backspace', 'o', 'b', 'backspace', 'backspace', 'backspace', 'backspace', 'o', 'v', 'e', 'r', 't', 'return']","[0.5707532000014908, 0.9388717000001634, 1.1066382000026351, 1.3386987000012596, 1.7465978000000177, 1.979116400001658, 2.690711700000975, 2.8112457000024733, 2.9387410000017553, 3.074786799999856, 3.2513060000019323, 3.8507004999992205, 4.019167800001014, 4.954774600002565, 5.131367699999828, 5.251265900002181, 5.627521700000216, 6.098755800001527, 6.3628513000003295, 6.579261900002166, 6.770771999999852, 6.962955400002102, 7.2988628999992216]",,,,,,,,,,,,,,,,,,,,,,,,,,,23,001,D,2023_Feb_08_1648,student_TT_local,2021.1.4,61.25457954430141,
,"While you watch the video, imagine yourself typing the word on the screen, like how you did in the imagery practice. While you watch the video and imagine this, rest your hands on your keyboard but DO NOT type until AFTER you see the typing prompt.

Press 'enter/return' to go to the next page.","While watching the video, imagine yourself typing the word on the screen, like how you did in the imagery practice. While you watch the video and imagine this, rest your hands on your keyboard but DO NOT type until AFTER you see the typing prompt.

Press 'enter/return' to go to the next page.",video&audio/Example_AOMI_imagine.png,1.6,1,butter,6.5,7.5,video&audio/amount_TT_3X.mp4,video&audio/butter_TT_3X.mp4,plight,metric,19.5,20.5,video&audio/Sentence2_touch_edited.mp4,video&audio/eatery_touch_edited.mp4,ascend,eatery,2 = AOMIspec,,,,,,,,,,,,,,,,,,,,,,,,,,,0,13,13,1,,,,,,,,,,,,,,,,,,,,,,,,,,,,,,,,,,,,,,,,,,,,,,,,None,,,None, ascend,"['a', 's', 'c', 'e', 'b', 'd', 'backspace', 'backspace', 'n', 'd', 'pound', 'backspace', 'return']","[0.5970391999981075, 0.9649133999992046, 1.4774844999992638, 1.7328635999983817, 1.9171313999977428, 2.260979499998939, 2.9170252999974764, 3.0539231000002474, 3.6215412999990804, 3.7810867999978655, 4.268979899999977, 4.781550299998344, 5.077296899999055]",,,,,,,,,,,,,,,,,,,,,,,,,,,23,001,D,2023_Feb_08_1648,student_TT_local,2021.1.4,61.25457954430141,
,None,None,None,None,None,None,None,None,None,None,upkeep,parish,6.5,7.5,video&audio/sentence5_TT_3X.mp4,video&audio/gullet_TT_3X.mp4,picket,gullet,None,,,,,,,,,,,,,,,,,,,,,,,,,,,0,14,14,28,,,,,,,,,,,,,,,,,,,,,,,,,,,,,,,,,,,,,,,,,,,,,,,,None,,,None, picket,"['p', 'i', 'c', 'k', 'e', 't', 'return']","[0.39860440000120434, 0.6622551000000385, 0.7104035000011208, 1.534626799999387, 1.6781503000020166, 2.1265731000021333, 2.2865865000021586]",,,,,,,,,,,,,,,,,,,,,,,,,,,23,001,D,2023_Feb_08_1648,student_TT_local,2021.1.4,61.25457954430141,
,None,None,None,None,None,None,None,None,None,None,goblet,befall,19.5,20.5,video&audio/Sentence3_touch_edited.mp4,video&audio/ration_touch_edited.mp4,solemn,ration,None,,,,,,,,,,,,,,,,,,,,,,,,,,,0,15,15,8,,,,,,,,,,,,,,,,,,,,,,,,,,,,,,,,,,,,,,,,,,,,,,,,None,,,None, solemn,"['s', 'o', 'l', 'e', 'm', 'n', 'return']","[0.4264709999988554, 0.6588594999993802, 0.9384533000011288, 1.3156213000002026, 1.730727599999227, 1.939649100000679, 2.322952400001668]",,,,,,,,,,,,,,,,,,,,,,,,,,,23,001,D,2023_Feb_08_1648,student_TT_local,2021.1.4,61.25457954430141,
,None,None,None,None,None,None,None,None,None,None,brazen,fungal,6.5,7.5,video&audio/sentence5_TT_3X.mp4,video&audio/mucous_TT_3X.mp4,subtle,mucous,None,,,,,,,,,,,,,,,,,,,,,,,,,,,0,16,16,22,,,,,,,,,,,,,,,,,,,,,,,,,,,,,,,,,,,,,,,,,,,,,,,,None,,,None, subtle,"['s', 'u', 'b', 't', 'l', 'e', 'return']","[0.3142831000004662, 0.39347880000059376, 0.5374803000013344, 0.6656465999985812, 1.0173915000013949, 1.130191799999011, 1.6012746000014886]",,,,,,,,,,,,,,,,,,,,,,,,,,,23,001,D,2023_Feb_08_1648,student_TT_local,2021.1.4,61.25457954430141,
,"Remember to type as QUICKLY and ACCURATELY as possible after the 'get ready' prompt.

Ask the experimenter any questions now. Please put on the headphones.

You will get one practice trial. Press 'enter/return' when you are ready to start the practice.","Remember to type as QUICKLY and ACCURATELY as you can after the 'get ready' prompt.

Ask the experimenter any questions now. Please put on the headphones.

You will get one practice trial. Press 'enter/return' when you are ready to start the practice.",video&audio/Example_AOMI_total.png,1.8,0.7,None,None,None,None,None,jargon,oppose,19.5,20.5,video&audio/Sentence3_touch_edited.mp4,video&audio/ghetto_touch_edited.mp4,frugal,ghetto,None,,,,,,,,,,,,,,,,,,,,,,,,,,,0,17,17,2,,,,,,,,,,,,,,,,,,,,,,,,,,,,,,,,,,,,,,,,,,,,,,,,None,,,None, furgal,"['f', 'u', 'r', 'g', 's', 'l', 'backspace', 'backspace', 'a', 'l', 'pound', 'backspace', 'return']","[0.7197961000019859, 0.8320500000008906, 0.9602042000005895, 1.3598777000006521, 1.6085710000006657, 1.831882599999517, 2.1198985000009998, 2.264341300000524, 2.616449199998897, 2.944093599999178, 3.2403330000015558, 3.7364287999989756, 4.008046499999182]",,,,,,,,,,,,,,,,,,,,,,,,,,,23,001,D,2023_Feb_08_1648,student_TT_local,2021.1.4,61.25457954430141,
,None,None,None,None,None,None,None,None,None,None,sonnet,hearth,19.5,20.5,video&audio/Sentence3_touch_edited.mp4,video&audio/herbal_touch_edited.mp4,hippie,herbal,None,,,,,,,,,,,,,,,,,,,,,,,,,,,0,18,18,14,,,,,,,,,,,,,,,,,,,,,,,,,,,,,,,,,,,,,,,,,,,,,,,,None,,,None, hippie,"['h', 'i', 'p', 'p', 'e', 'backspace', 'i', 'e', 'return']","[0.6488987000011548, 0.72884250000061, 0.9288034999990487, 1.3051998000009917, 1.4734157999992021, 1.9128477000012936, 2.193329599998833, 2.3209051999983785, 2.704958300000726]",,,,,,,,,,,,,,,,,,,,,,,,,,,23,001,D,2023_Feb_08_1648,student_TT_local,2021.1.4,61.25457954430141,
,None,None,None,None,None,None,None,None,None,None,murmur,cobble,6.5,7.5,video&audio/sentence2_TT_3X.mp4,video&audio/export_TT_3X.mp4,cervix,export,None,,,,,,,,,,,,,,,,,,,,,,,,,,,0,19,19,19,,,,,,,,,,,,,,,,,,,,,,,,,,,,,,,,,,,,,,,,,,,,,,,,None,,,None, cervix,"['c', 'e', 'r', 'v', 'i', 'x', 'return']","[0.3960031999995408, 0.5802215000003343, 0.7402180999997654, 0.9489962000006926, 1.3005259000019578, 1.4600055000009888, 1.8445522000001802]",,,,,,,,,,,,,,,,,,,,,,,,,,,23,001,D,2023_Feb_08_1648,student_TT_local,2021.1.4,61.25457954430141,
,None,None,None,None,None,None,None,None,None,None,deduct,jailer,6.5,7.5,video&audio/sentence5_TT_3X.mp4,video&audio/nettle_TT_3X.mp4,plasma,nettle,None,,,,,,,,,,,,,,,,,,,,,,,,,,,0,20,20,16,,,,,,,,,,,,,,,,,,,,,,,,,,,,,,,,,,,,,,,,,,,,,,,,None,,,None, plasma,"['p', 'l', 'k', 'a', 'backspace', 'backspace', 'a', 's', 'm', 'a', 'return']","[0.24570479999965755, 0.4223837999998068, 0.4299037999990105, 0.4545381999996607, 0.9181432000004861, 1.0543703000003006, 1.206179600001633, 1.502012700002524, 1.6461167000015848, 1.8858169000013731, 2.0297308000008343]",,,,,,,,,,,,,,,,,,,,,,,,,,,23,001,D,2023_Feb_08_1648,student_TT_local,2021.1.4,61.25457954430141,
,None,None,None,None,None,None,None,None,None,None,convoy,output,6.5,7.5,video&audio/sentence1_TT_3X.mp4,video&audio/uphold_TT_3X.mp4,debtor,uphold,None,,,,,,,,,,,,,,,,,,,,,,,,,,,0,21,21,18,,,,,,,,,,,,,,,,,,,,,,,,,,,,,,,,,,,,,,,,,,,,,,,,None,,,None, debtor,"['d', 'e', 'b', 't', 'o', 'r', 'return']","[0.2684229999977106, 0.4444002999989607, 0.5166638999980933, 1.069036299999425, 1.2443789999997534, 1.3647006999999576, 1.5644213999985368]",,,,,,,,,,,,,,,,,,,,,,,,,,,23,001,D,2023_Feb_08_1648,student_TT_local,2021.1.4,61.25457954430141,
,None,None,None,None,None,None,None,None,None,None,legion,campus,6.5,7.5,video&audio/sentence6_TT_3X.mp4,video&audio/allure_TT_3X.mp4,forage,allure,None,,,,,,,,,,,,,,,,,,,,,,,,,,,0,22,22,29,,,,,,,,,,,,,,,,,,,,,,,,,,,,,,,,,,,,,,,,,,,,,,,,None,,,None, forage,"['f', 'o', 'r', 'a', 'g', 'e', 'pound', 'backspace', 'return']","[0.22623409999869182, 0.37827459999971325, 0.4108598999991955, 0.7942210000001069, 1.122459300000628, 1.219323199999053, 1.442468099998223, 1.9712595999990299, 2.226386399997864]",,,,,,,,,,,,,,,,,,,,,,,,,,,23,001,D,2023_Feb_08_1648,student_TT_local,2021.1.4,61.25457954430141,
,None,None,None,None,None,None,None,None,None,None,potent,tandem,6.5,7.5,video&audio/sentence4_TT_3X.mp4,video&audio/origin_TT_3X.mp4,falter,origin,None,,,,,,,,,,,,,,,,,,,,,,,,,,,0,23,23,15,,,,,,,,,,,,,,,,,,,,,,,,,,,,,,,,,,,,,,,,,,,,,,,,None,,,None, falter,"['f', 'a', 'semicolon', 'backspace', 'a', 'l', 'e', 't', 'backspace', 'backspace', 't', 'e', 'r', 'return']","[0.34117589999732445, 0.3500274999969406, 0.5413422999990871, 1.117744599996513, 1.389473999999609, 1.5342026999969676, 2.053813099999388, 2.182082499999524, 2.5896328999988327, 2.725233599998319, 2.877296099999512, 3.03738919999887, 3.2053514999970503, 3.317863299998862]",,,,,,,,,,,,,,,,,,,,,,,,,,,23,001,D,2023_Feb_08_1648,student_TT_local,2021.1.4,61.25457954430141,
,None,None,None,None,None,None,None,None,None,None,critic,binder,19.5,20.5,video&audio/Sentence1_touch_edited.mp4,video&audio/tamper_touch_edited.mp4,confer,tamper,None,,,,,,,,,,,,,,,,,,,,,,,,,,,0,24,24,12,,,,,,,,,,,,,,,,,,,,,,,,,,,,,,,,,,,,,,,,,,,,,,,,None,,,None, confer,"['c', 'i', 'n', 'f', 'e', 'r', 'backspace', 'backspace', 'backspace', 'backspace', 'backspace', 'o', 'n', 'f', 'e', 'r', 'return']","[0.49139520000244374, 0.5873954000016965, 1.3076137999996718, 1.5236882000026526, 1.6992048000029172, 1.9637242999997397, 2.68319590000101, 2.84322020000036, 2.979788800003007, 3.115362800002913, 3.259473500002059, 3.819488700002694, 4.0111157999999705, 4.347615500002576, 4.54722170000241, 4.755053800003225, 5.0759694000007585]",,,,,,,,,,,,,,,,,,,,,,,,,,,23,001,D,2023_Feb_08_1648,student_TT_local,2021.1.4,61.25457954430141,
,None,None,None,None,None,None,None,None,None,None,mirage,shrewd,19.5,20.5,video&audio/Sentence1_touch_edited.mp4,video&audio/revoke_touch_edited.mp4,malady,revoke,None,,,,,,,,,,,,,,,,,,,,,,,,,,,0,25,25,6,,,,,,,,,,,,,,,,,,,,,,,,,,,,,,,,,,,,,,,,,,,,,,,,None,,,None, malady,"['n', 'a', 'equal', 'equal', 'backspace', 'backspace', 'backspace', 'backspace', 'm', 'a', 'l', 'a', 'd', 'y', 'return']","[0.7730893999978434, 0.9723405999975512, 1.3724360999985947, 1.5082830999999715, 2.068850499999826, 2.228173399998923, 2.380093299998407, 2.556677499997022, 3.084203999998863, 3.316399299998011, 3.50034819999928, 4.076892799999769, 4.284556899998279, 4.452422399997886, 4.796138899997459]",,,,,,,,,,,,,,,,,,,,,,,,,,,23,001,D,2023_Feb_08_1648,student_TT_local,2021.1.4,61.25457954430141,
,None,None,None,None,None,None,None,None,None,None,musket,meddle,6.5,7.5,video&audio/sentence2_TT_3X.mp4,video&audio/divert_TT_3X.mp4,kipper,divert,None,,,,,,,,,,,,,,,,,,,,,,,,,,,0,26,26,25,,,,,,,,,,,,,,,,,,,,,,,,,,,,,,,,,,,,,,,,,,,,,,,,None,,,None, kipper,"['k', 'i', 'p', 'e', 'p', 'backspace', 'backspace', 'p', 'e', 'r', 'return']","[0.12368849999984377, 0.3227736000008008, 0.675276699999813, 0.7878761000029044, 0.9150543000032485, 1.1712404999998398, 1.2918728000004194, 1.5712343000013789, 1.6593352000018058, 1.8193271000018285, 2.0111456000013277]",,,,,,,,,,,,,,,,,,,,,,,,,,,23,001,D,2023_Feb_08_1648,student_TT_local,2021.1.4,61.25457954430141,
,None,None,None,None,None,None,None,None,None,None,satire,mangle,6.5,7.5,video&audio/sentence1_TT_3X.mp4,video&audio/warble_TT_3X.mp4,devise,warble,None,,,,,,,,,,,,,,,,,,,,,,,,,,,0,27,27,24,,,,,,,,,,,,,,,,,,,,,,,,,,,,,,,,,,,,,,,,,,,,,,,,None,,,None, devise,"['d', 'e', 'r', 'v', 'i', 'd', 'backspace', 's', 'e', 'r', 'return']","[0.288718499999959, 0.4643609999984619, 0.47251949999917997, 0.672456999996939, 0.9129264999974112, 1.1208957999988343, 1.432446599999821, 1.5283911999977136, 1.7045996999986528, 1.7125184999968042, 1.808219899998221]",,,,,,,,,,,,,,,,,,,,,,,,,,,23,001,D,2023_Feb_08_1648,student_TT_local,2021.1.4,61.25457954430141,
,None,None,None,None,None,None,None,None,None,None,savant,induce,6.5,7.5,video&audio/sentence4_TT_3X.mp4,video&audio/mussel_TT_3X.mp4,cortex,mussel,None,,,,,,,,,,,,,,,,,,,,,,,,,,,0,28,28,21,,,,,,,,,,,,,,,,,,,,,,,,,,,,,,,,,,,,,,,,,,,,,,,,None,,,None, cortex,"['c', 'o', 'r', 'e', 'backspace', 't', 'e', 'x', 'return']","[0.30443649999870104, 0.39280069999949774, 0.5684212999985903, 0.7847691999995732, 1.1921860999973433, 1.2722799000002851, 1.6721894999973301, 1.8721630000000005, 2.0248697999995784]",,,,,,,,,,,,,,,,,,,,,,,,,,,23,001,D,2023_Feb_08_1648,student_TT_local,2021.1.4,61.25457954430141,
,None,None,None,None,None,None,None,None,None,None,infirm,oblige,19.5,20.5,video&audio/Sentence4_touch_edited.mp4,video&audio/mystic_touch_edited.mp4,pulpit,mystic,None,,,,,,,,,,,,,,,,,,,,,,,,,,,0,29,29,3,,,,,,,,,,,,,,,,,,,,,,,,,,,,,,,,,,,,,,,,,,,,,,,,None,,,None, pulpit,"['p', 'u', 'l', 'p', 'i', 't', 'return']","[0.8529190000008384, 1.140918100001727, 1.4286557000014, 1.9967331000007107, 2.212598199999775, 2.34857220000049, 2.7968866000010166]",,,,,,,,,,,,,,,,,,,,,,,,,,,23,001,D,2023_Feb_08_1648,student_TT_local,2021.1.4,61.25457954430141,
,,,,,,,,,,,,,,,,,,,,typingRatingScale.png,"How would you rate your typing performance in the previous section?

Press a number on your keyboard according to the rating scale below to give your answer. Your first answer will be accepted.",,,,,,,,,,,,,,,,,,,,,,,,,,,,,0,0,0,0,,,,,,,,,,,,,,,,,,,,,,,,,,,,,,,,,,,,,,,,,,,,,,,,,,,,['3'],[5.00114449999819],,,,,,,,,,,,,,,,,,,,,,,,23,001,D,2023_Feb_08_1648,student_TT_local,2021.1.4,61.25457954430141,
,,,,,,,,,,,,,,,,,,,,visualImageryScale.png,"While imagining yourself typing, how clear was your visual image?

Press a number on your keyboard according to the rating scale below to give your answer. Your first answer will be accepted.",,,,,,,,,,,,,,,,,,,,,,,,,,,,,0,1,1,1,,,,,,,,,,,,,,,,,,,,,,,,,,,,,,,,,,,,,,,,,,,,,,,,,,,,['2'],[16.315509399999428],,,,,,,,,,,,,,,,,,,,,,,,23,001,D,2023_Feb_08_1648,student_TT_local,2021.1.4,61.25457954430141,
,,,,,,,,,,,,,,,,,,,,kinestheticImageryScale.png,"While imagining yourself typing, how intense were the sensations associated with the imagined movement?

Press a number on your keyboard according to the rating scale below to give your answer. Your first answer will be accepted.",,,,,,,,,,,,,,,,,,,,,,,,,,,,,0,2,2,2,,,,,,,,,,,,,,,,,,,,,,,,,,,,,,,,,,,,,,,,,,,,,,,,,,,,['4'],[5.964145199999621],,,,,,,,,,,,,,,,,,,,,,,,23,001,D,2023_Feb_08_1648,student_TT_local,2021.1.4,61.25457954430141,
,None,None,None,None,None,None,None,None,None,None,coerce,clergy,6.5,7.5,video&audio/sentence6_TT_3X.mp4,video&audio/portal_TT_3X.mp4,ritual,portal,None,,,,,,,,,,,,,,,,,,,,,,,,,,,,,,,,,,,,,,,,,,,0,0,0,17,,,,,,,,,,,,,,,,,,,,,,,,,,,,,,,,,,,,,,,,,,1636.7192809999979,1643.2243710000002,None, butter,"['b', 'u', 't', 't', 'e', 'r', 'return']","[0.8081136000000697, 1.0643587999984447, 1.312144100000296, 1.448666799999046, 1.6799767999982578, 1.8401312999994843, 2.24017989999993]",1696.7846543999985,1703.2963434999983,None, clergy,"['c', 'l', 'e', 'r', 'f', 'backspace', 'g', 'y', 'return']","[0.7165727999999945, 1.0848418999994465, 1.2053273000019544, 1.373455600001762, 1.9247275999987323, 2.2773163999991084, 2.3645566000013787, 2.5567124000008334, 2.7328548000004957]",,,,,,,,,,,,23,001,D,2023_Feb_08_1648,student_TT_local,2021.1.4,61.25457954430141,
,None,None,None,None,None,None,None,None,None,None,brazen,fungal,6.5,7.5,video&audio/sentence5_TT_3X.mp4,video&audio/mucous_TT_3X.mp4,subtle,mucous,None,,,,,,,,,,,,,,,,,,,,,,,,,,,,,,,,,,,,,,,,,,,0,1,1,22,,,,,,,,,,,,,,,,,,,,,,,,,,,,,,,,,,,,,,,,,,,,,,,,1707.0724143000007,1713.5873594999975,None, fungal,"['f', 'u', 'n', 'g', 'a', 'l', 'return']","[0.7537587999977404, 0.8177564999969036, 1.0261007999979483, 1.2584646999966935, 1.4579949999970268, 1.9702545999971335, 2.3067478999982995]",,,,,,,,,,,,23,001,D,2023_Feb_08_1648,student_TT_local,2021.1.4,61.25457954430141,
,None,None,None,None,None,None,None,None,None,None,manure,girdle,6.5,7.5,video&audio/sentence6_TT_3X.mp4,video&audio/linear_TT_3X.mp4,belfry,linear,None,,,,,,,,,,,,,,,,,,,,,,,,,,,,,,,,,,,,,,,,,,,0,2,2,23,,,,,,,,,,,,,,,,,,,,,,,,,,,,,,,,,,,,,,,,,,,,,,,,1716.9221174999984,1723.4275400000006,None, girdle,"['g', 'i', 'r', 'd', 'l', 'e', 'pound', 'backspace', 'return']","[1.2531560999996145, 1.341688200001954, 1.4934901000015088, 1.95780840000225, 2.0701281000001472, 2.6537959999986924, 2.8855991999989783, 3.4133847000011883, 3.6613133999999263]",,,,,,,,,,,,23,001,D,2023_Feb_08_1648,student_TT_local,2021.1.4,61.25457954430141,
,None,None,None,None,None,None,None,None,None,None,sonnet,hearth,19.5,20.5,video&audio/Sentence3_touch_edited.mp4,video&audio/herbal_touch_edited.mp4,hippie,herbal,None,,,,,,,,,,,,,,,,,,,,,,,,,,,,,,,,,,,,,,,,,,,0,3,3,14,,,,,,,,,,,,,,,,,,,,,,,,,,,,,,,,,,,,,,,,,,,,,,,,1728.1329875999982,1747.6464196999987,None, hearth,"['h', 'e', 'a', 'r', 't', 'h', 'return']","[0.6993226000013237, 0.9231217000015022, 1.1072120000026189, 1.6430624999993597, 2.171621800000139, 2.2751979999993637, 3.1951125000014144]",,,,,,,,,,,,23,001,D,2023_Feb_08_1648,student_TT_local,2021.1.4,61.25457954430141,
,None,None,None,None,None,None,None,None,None,None,infirm,oblige,19.5,20.5,video&audio/Sentence4_touch_edited.mp4,video&audio/mystic_touch_edited.mp4,pulpit,mystic,None,,,,,,,,,,,,,,,,,,,,,,,,,,,,,,,,,,,,,,,,,,,0,4,4,3,,,,,,,,,,,,,,,,,,,,,,,,,,,,,,,,,,,,,,,,,,,,,,,,1751.8822283000009,1771.3947426999985,None, oblige,"['o', 'b', 'l', 'i', 'g', 'e', 'pound', 'backspace', 'return']","[0.7356299999992189, 0.919668599999568, 1.0398056999983964, 1.2396659000005457, 1.4484329000006255, 1.5678551999990304, 2.576140699999087, 3.0725682000011147, 3.343705899998895]",,,,,,,,,,,,23,001,D,2023_Feb_08_1648,student_TT_local,2021.1.4,61.25457954430141,
,None,None,None,None,None,None,None,None,None,None,convoy,output,6.5,7.5,video&audio/sentence1_TT_3X.mp4,video&audio/uphold_TT_3X.mp4,debtor,uphold,None,,,,,,,,,,,,,,,,,,,,,,,,,,,,,,,,,,,,,,,,,,,0,5,5,18,,,,,,,,,,,,,,,,,,,,,,,,,,,,,,,,,,,,,,,,,,,,,,,,1775.7840455999976,1782.2945648999994,None, output,"['o', 'u', 't', 'p', 'u', 't', 'return']","[0.6432749000014155, 0.8439928000007058, 0.9556807000008121, 1.083130600000004, 1.5080301000016334, 1.6992838000005577, 2.2993175000010524]",,,,,,,,,,,,23,001,D,2023_Feb_08_1648,student_TT_local,2021.1.4,61.25457954430141,
,"While you watch the video, imagine yourself typing the word on the screen, like how you did in the imagery practice. While you watch the video and imagine this, rest your hands on your keyboard but DO NOT type until AFTER you see the typing prompt.

Press 'enter/return' to go to the next page.","While watching the video, imagine yourself typing the word on the screen, like how you did in the imagery practice. While you watch the video and imagine this, rest your hands on your keyboard but DO NOT type until AFTER you see the typing prompt.

Press 'enter/return' to go to the next page.",video&audio/Example_AOMI_imagine.png,1.6,1,butter,6.5,7.5,video&audio/amount_TT_3X.mp4,video&audio/butter_TT_3X.mp4,plight,metric,19.5,20.5,video&audio/Sentence2_touch_edited.mp4,video&audio/eatery_touch_edited.mp4,ascend,eatery,2 = AOMIspec,,,,,,,,,,,,,,,,,,,,,,,,,,,,,,,,,,,,,,,,,,,0,6,6,1,,,,,,,,,,,,,,,,,,,,,,,,,,,,,,,,,,,,,,,,,,,,,,,,1785.6264503999992,1805.1333140999996,None, metric,"['m', 'e', 't', 'r', 'i', 'c', 'return']","[0.7553575999991153, 0.9304205000007642, 1.234750499999791, 1.434139500001038, 1.5461322000010114, 1.69078140000056, 2.082403399999748]",,,,,,,,,,,,23,001,D,2023_Feb_08_1648,student_TT_local,2021.1.4,61.25457954430141,
,None,None,None,None,None,None,None,None,None,None,impose,feudal,6.5,7.5,video&audio/sentence3_TT_3X.mp4,video&audio/matron_TT_3X.mp4,subdue,matron,None,,,,,,,,,,,,,,,,,,,,,,,,,,,,,,,,,,,,,,,,,,,0,7,7,26,,,,,,,,,,,,,,,,,,,,,,,,,,,,,,,,,,,,,,,,,,,,,,,,1808.2471366999998,1814.7552484000007,None, feudal,"['g', 'equal', 'f', 'equal', 'equal', 'backspace', 'backspace', 'backspace', 'backspace', 'backspace', 'f', 'e', 'u', 'd', 'a', 'semicolon', 'backspace', 'l', 'return']","[0.7671635000006063, 1.175564500001201, 1.2872028999991016, 1.5750864000001457, 1.7190647999996145, 1.8796400999999605, 2.0151705000025686, 2.295183599999291, 2.431082900002366, 2.5836323000003176, 2.7275656999991043, 2.9030277999991085, 2.998918400000548, 3.2152893999991647, 3.4152458000025945, 3.5836266000005708, 3.9671348000010767, 4.527545100001589, 4.711128499999177]",,,,,,,,,,,,23,001,D,2023_Feb_08_1648,student_TT_local,2021.1.4,61.25457954430141,
,None,None,None,None,None,None,None,None,None,None,murmur,cobble,6.5,7.5,video&audio/sentence2_TT_3X.mp4,video&audio/export_TT_3X.mp4,cervix,export,None,,,,,,,,,,,,,,,,,,,,,,,,,,,,,,,,,,,,,,,,,,,0,8,8,19,,,,,,,,,,,,,,,,,,,,,,,,,,,,,,,,,,,,,,,,,,,,,,,,1820.5064214999984,1827.0152987000001,None, cobble,"['c', 'o', 'b', 'b', 'l', 'e', 'return']","[0.7757659999988391, 1.231594299999415, 1.375945200001297, 1.5273758000003, 1.6397421000001486, 1.7841869000003499, 2.2316671000007773]",,,,,,,,,,,,23,001,D,2023_Feb_08_1648,student_TT_local,2021.1.4,61.25457954430141,
,None,None,None,None,None,None,None,None,None,None,fodder,trench,6.5,7.5,video&audio/sentence4_TT_3X.mp4,video&audio/ethnic_TT_3X.mp4,botany,ethnic,None,,,,,,,,,,,,,,,,,,,,,,,,,,,,,,,,,,,,,,,,,,,0,9,9,27,,,,,,,,,,,,,,,,,,,,,,,,,,,,,,,,,,,,,,,,,,,,,,,,1830.2979745999983,1836.8051293999997,None, trench,"['t', 'r', 'e', 'n', 'c', 'h', 'return']","[0.7292683999985456, 0.8885446999993292, 1.0564207999996142, 1.1759977000001527, 1.3442945999995572, 1.4243740999991132, 2.504033499997604]",,,,,,,,,,,,23,001,D,2023_Feb_08_1648,student_TT_local,2021.1.4,61.25457954430141,
,None,None,None,None,None,None,None,None,None,None,revolt,joiner,19.5,20.5,video&audio/Sentence6_touch_edited.mp4,video&audio/apathy_touch_edited.mp4,virile,apathy,None,,,,,,,,,,,,,,,,,,,,,,,,,,,,,,,,,,,,,,,,,,,0,10,10,5,,,,,,,,,,,,,,,,,,,,,,,,,,,,,,,,,,,,,,,,,,,,,,,,1843.908140200001,1863.4069158999991,None, joiner,"['j', 'o', 'i', 'n', 'e', 'r', 'return']","[0.612069300001167, 0.8274571000001743, 1.004079999998794, 1.235420900000463, 1.411444900000788, 1.5959512000008544, 2.036786900000152]",,,,,,,,,,,,23,001,D,2023_Feb_08_1648,student_TT_local,2021.1.4,61.25457954430141,
,None,None,None,None,None,None,None,None,None,None,mirage,shrewd,19.5,20.5,video&audio/Sentence1_touch_edited.mp4,video&audio/revoke_touch_edited.mp4,malady,revoke,None,,,,,,,,,,,,,,,,,,,,,,,,,,,,,,,,,,,,,,,,,,,0,11,11,6,,,,,,,,,,,,,,,,,,,,,,,,,,,,,,,,,,,,,,,,,,,,,,,,1866.4981062999977,1886.0199121000005,None, shrewd,"['s', 'h', 'r', 'e', 'w', 'd', 'bracketright', 'backspace', 'return']","[0.8759008000015456, 1.0199954000017897, 1.195800400000735, 1.387800699998479, 1.59577150000041, 2.7239522999989276, 3.083598900000652, 3.613164999998844, 3.868382600001496]",,,,,,,,,,,,23,001,D,2023_Feb_08_1648,student_TT_local,2021.1.4,61.25457954430141,
,None,None,None,None,None,None,None,None,None,None,goblet,befall,19.5,20.5,video&audio/Sentence3_touch_edited.mp4,video&audio/ration_touch_edited.mp4,solemn,ration,None,,,,,,,,,,,,,,,,,,,,,,,,,,,,,,,,,,,,,,,,,,,0,12,12,8,,,,,,,,,,,,,,,,,,,,,,,,,,,,,,,,,,,,,,,,,,,,,,,,1890.9204234999997,1910.421794599999,None, befall,"['b', 'e', 'f', 'a', 'l', 'l', 'pound', 'backspace', 'return']","[0.7094528000015998, 0.8381318000028841, 1.0377148000006855, 1.2611554000031902, 1.4132473000026948, 1.5257339000017964, 1.8540659000027517, 2.309127800002898, 2.557742799999687]",,,,,,,,,,,,23,001,D,2023_Feb_08_1648,student_TT_local,2021.1.4,61.25457954430141,
,"This is Section 2.

In this section, your task will be the same as before - that is, to type the word you see on the screen AFTER the typing prompt. However, rather than just seeing the word before typing, you will also see a video of someone typing different words to what you will need to type at different speeds. 

Press 'enter/return' to go to the next page.","This is Section 4. 

In this section, your task will be the same as before - that is, to type the word you see on the screen after the typing prompt. You will see a video again, like in Section 2, only this time, the video will show someone the same word that you must type at different speeds. 

Press 'enter/return' to go to the next page.",video&audio/Example_AOMI_layout.png,1.6,0.6,afford,19.5,20.5,video&audio/amount_touch_edited.mp4,video&audio/afford_touch_edited.mp4,vanity,hinder,19.5,20.5,video&audio/Sentence1_touch_edited.mp4,video&audio/breach_touch_edited.mp4,matrix,breach,1 = AOMIgen,,,,,,,,,,,,,,,,,,,,,,,,,,,,,,,,,,,,,,,,,,,0,13,13,0,,,,,,,,,,,,,,,,,,,,,,,,,,,,,,,,,,,,,,,,,,,,,,,,1914.0276672,1933.5318345999985,None, hinder,"['h', 'i', 'n', 'd', 'e', 'r', 'return']","[0.6003736000020581, 0.7839950999987195, 0.9608092999988003, 1.081130900001881, 1.2407611000016914, 1.4004755999994813, 1.8169177999989188]",,,,,,,,,,,,23,001,D,2023_Feb_08_1648,student_TT_local,2021.1.4,61.25457954430141,
,None,None,None,None,None,None,None,None,None,None,quarry,septic,19.5,20.5,video&audio/Sentence2_touch_edited.mp4,video&audio/innate_touch_edited.mp4,neural,innate,None,,,,,,,,,,,,,,,,,,,,,,,,,,,,,,,,,,,,,,,,,,,0,14,14,13,,,,,,,,,,,,,,,,,,,,,,,,,,,,,,,,,,,,,,,,,,,,,,,,1936.3961273999994,1955.9148935999983,None, septiv,"['s', 'p', 'e', 't', 'i', 'c', 'backspace', 'backspace', 'backspace', 'backspace', 'backspace', 'e', 'p', 't', 'i', 'v', 'return']","[0.6478440999999293, 0.7829768000010517, 0.9107678000000305, 1.126720899999782, 1.2868023000009998, 1.3667810000006284, 2.1108109000015247, 2.2706598000004306, 2.390603600000759, 2.5270134000020334, 2.6628726000017195, 3.038824100000056, 3.1753002000004926, 3.366828700000042, 3.62264050000158, 3.7268253000002005, 4.023164700000052]",,,,,,,,,,,,23,001,D,2023_Feb_08_1648,student_TT_local,2021.1.4,61.25457954430141,
,None,None,None,None,None,None,None,None,None,None,parole,hamlet,19.5,20.5,video&audio/Sentence4_touch_edited.mp4,video&audio/shroud_touch_edited.mp4,jackal,shroud,None,,,,,,,,,,,,,,,,,,,,,,,,,,,,,,,,,,,,,,,,,,,0,15,15,9,,,,,,,,,,,,,,,,,,,,,,,,,,,,,,,,,,,,,,,,,,,,,,,,1960.9721800000007,1980.4849563999996,None, hamlet,"['h', 'a', 'm', 'l', 'e', 't', 'return']","[0.2603741999992053, 0.40418749999662396, 0.5164357999965432, 0.9643165999987104, 1.2365095999994082, 1.4366015999985393, 1.724679399998422]",,,,,,,,,,,,23,001,D,2023_Feb_08_1648,student_TT_local,2021.1.4,61.25457954430141,
,None,None,None,None,None,None,None,None,None,None,ordain,patent,19.5,20.5,video&audio/Sentence6_touch_edited.mp4,video&audio/defame_touch_edited.mp4,covert,defame,None,,,,,,,,,,,,,,,,,,,,,,,,,,,,,,,,,,,,,,,,,,,0,16,16,11,,,,,,,,,,,,,,,,,,,,,,,,,,,,,,,,,,,,,,,,,,,,,,,,1983.2395117999986,2002.7482952999999,['p'],patent,"['a', 't', 'backspace', 'backspace', 'backspace', 'p', 'a', 'r', 'backspace', 't', 'e', 'n', 't', 'pound', 'backspace', 'return']","[0.043600500001048204, 0.3788304000008793, 0.8356602999992901, 0.9470863999995345, 1.0747940000001108, 1.2991112999989127, 1.4427455000004556, 1.6988584999999148, 2.1873029000016686, 2.3626690000019153, 2.5467405000017607, 2.610879700001533, 2.7309767000006104, 3.115007100001094, 3.5627606000016385, 3.7874492000009923]",[20.45125890000054],,,,,,,,,,,23,001,D,2023_Feb_08_1648,student_TT_local,2021.1.4,61.25457954430141,
,"Remember to type as QUICKLY and ACCURATELY as possible after the 'get ready' prompt.

Ask the experimenter any questions now. Please put on the headphones.

You will get one practice trial. Press 'enter/return' when you are ready to start the practice.","Remember to type as QUICKLY and ACCURATELY as you can after the 'get ready' prompt.

Ask the experimenter any questions now. Please put on the headphones.

You will get one practice trial. Press 'enter/return' when you are ready to start the practice.",video&audio/Example_AOMI_total.png,1.8,0.7,None,None,None,None,None,jargon,oppose,19.5,20.5,video&audio/Sentence3_touch_edited.mp4,video&audio/ghetto_touch_edited.mp4,frugal,ghetto,None,,,,,,,,,,,,,,,,,,,,,,,,,,,,,,,,,,,,,,,,,,,0,17,17,2,,,,,,,,,,,,,,,,,,,,,,,,,,,,,,,,,,,,,,,,,,,,,,,,2007.5754075000004,2027.094937599999,None, oppose,"['o', 'p', 'p', 'o', 's', 'backspace', 'backspace', 'o', 's', 'd', 'e', 'backspace', 'backspace', 'e', 'return']","[3.2523094000025594, 3.452434800001356, 3.588844199999585, 3.756964100000914, 3.972126100001333, 4.412047199999506, 4.587892200001079, 5.099898300002678, 5.253056199999264, 5.4040965999993205, 5.572474900000088, 5.859872900000482, 6.004115899999306, 6.107836300001509, 6.2527711000002455]",,,,,,,,,,,,23,001,D,2023_Feb_08_1648,student_TT_local,2021.1.4,61.25457954430141,
,None,None,None,None,None,None,None,None,None,None,deduct,jailer,6.5,7.5,video&audio/sentence5_TT_3X.mp4,video&audio/nettle_TT_3X.mp4,plasma,nettle,None,,,,,,,,,,,,,,,,,,,,,,,,,,,,,,,,,,,,,,,,,,,0,18,18,16,,,,,,,,,,,,,,,,,,,,,,,,,,,,,,,,,,,,,,,,,,,,,,,,2034.3789786999987,2040.8941068999993,None, jailer,"['j', 'a', 'i', 'l', 'e', 'r', 'return']","[0.7745388000003004, 0.942519699998229, 1.0476037000007636, 1.2146444999998494, 1.3105384999980743, 1.4713907000004838, 1.7748759999994945]",,,,,,,,,,,,23,001,D,2023_Feb_08_1648,student_TT_local,2021.1.4,61.25457954430141,
,None,None,None,None,None,None,None,None,None,None,sherry,zephyr,19.5,20.5,video&audio/Sentence5_touch_edited.mp4,video&audio/fusion_touch_edited.mp4,obsess,fusion,None,,,,,,,,,,,,,,,,,,,,,,,,,,,,,,,,,,,,,,,,,,,0,19,19,10,,,,,,,,,,,,,,,,,,,,,,,,,,,,,,,,,,,,,,,,,,,,,,,,2043.6970522999982,2063.211860899999,None, zephyr,"['z', 'e', 'p', 'h', 'y', 'r', 'return']","[0.8018684999988182, 1.0256645000008575, 1.2976610000005167, 1.5214194000000134, 1.7373899999984133, 2.009658999999374, 2.417799599999853]",,,,,,,,,,,,23,001,D,2023_Feb_08_1648,student_TT_local,2021.1.4,61.25457954430141,
,None,None,None,None,None,None,None,None,None,None,musket,meddle,6.5,7.5,video&audio/sentence2_TT_3X.mp4,video&audio/divert_TT_3X.mp4,kipper,divert,None,,,,,,,,,,,,,,,,,,,,,,,,,,,,,,,,,,,,,,,,,,,0,20,20,25,,,,,,,,,,,,,,,,,,,,,,,,,,,,,,,,,,,,,,,,,,,,,,,,2079.2367454999985,2085.746927,None, meddle,"['m', 'd', 'backspace', 'e', 'd', 'd', 'l', 'e', 'return']","[0.5577508000023954, 1.3579226000001654, 1.7902178000003914, 2.118141500002821, 2.2782863000029465, 2.437919800002419, 2.5099445000014384, 2.806340100003581, 3.110062400002789]",,,,,,,,,,,,23,001,D,2023_Feb_08_1648,student_TT_local,2021.1.4,61.25457954430141,
,None,None,None,None,None,None,None,None,None,None,savant,induce,6.5,7.5,video&audio/sentence4_TT_3X.mp4,video&audio/mussel_TT_3X.mp4,cortex,mussel,None,,,,,,,,,,,,,,,,,,,,,,,,,,,,,,,,,,,,,,,,,,,0,21,21,21,,,,,,,,,,,,,,,,,,,,,,,,,,,,,,,,,,,,,,,,,,,,,,,,2089.896158899999,2096.4030477999986,None, induce,"['i', 'n', 'd', 'u', 'c', 'e', 'return']","[0.668213699998887, 0.8368941000007908, 0.9566135999994003, 1.0844274000010046, 1.180903299999045, 1.3648551000005682, 1.6765830000003916]",,,,,,,,,,,,23,001,D,2023_Feb_08_1648,student_TT_local,2021.1.4,61.25457954430141,
,None,None,None,None,None,None,None,None,None,None,satire,mangle,6.5,7.5,video&audio/sentence1_TT_3X.mp4,video&audio/warble_TT_3X.mp4,devise,warble,None,,,,,,,,,,,,,,,,,,,,,,,,,,,,,,,,,,,,,,,,,,,0,22,22,24,,,,,,,,,,,,,,,,,,,,,,,,,,,,,,,,,,,,,,,,,,,,,,,,2099.117443299998,2105.6356364999992,None, mangle,"['n', 'backspace', 'm', 'a', 'n', 'g', 'l', 'e', 'return']","[0.43662419999964186, 0.860007700001006, 1.179948400000285, 1.2838823000020056, 1.4201023999994504, 1.7483285999987856, 2.0598973000014666, 2.1644751999992877, 2.5161937000011676]",,,,,,,,,,,,23,001,D,2023_Feb_08_1648,student_TT_local,2021.1.4,61.25457954430141,
,None,None,None,None,None,None,None,None,None,None,strife,delude,19.5,20.5,video&audio/Sentence2_touch_edited.mp4,video&audio/galley_touch_edited.mp4,tariff,galley,None,,,,,,,,,,,,,,,,,,,,,,,,,,,,,,,,,,,,,,,,,,,0,23,23,7,,,,,,,,,,,,,,,,,,,,,,,,,,,,,,,,,,,,,,,,,,,,,,,,2109.1784664999977,2128.684206400001,None, delude,"['d', 'e', 'l', 'd', 'backspace', 'u', 'd', 'e', 'return']","[0.8826086000008218, 1.0585723000003782, 1.3464352000009967, 1.6661875999998301, 2.033788900000218, 2.3059266000018397, 2.4583010999995167, 2.578338800001802, 3.3778646000027948]",,,,,,,,,,,,23,001,D,2023_Feb_08_1648,student_TT_local,2021.1.4,61.25457954430141,
,None,None,None,None,None,None,None,None,None,None,upkeep,parish,6.5,7.5,video&audio/sentence5_TT_3X.mp4,video&audio/gullet_TT_3X.mp4,picket,gullet,None,,,,,,,,,,,,,,,,,,,,,,,,,,,,,,,,,,,,,,,,,,,0,24,24,28,,,,,,,,,,,,,,,,,,,,,,,,,,,,,,,,,,,,,,,,,,,,,,,,2133.112054000001,2139.6172221999987,None, parish,"['p', 'a', 'r', 'i', 's', 'h', 'pound', 'backspace', 'return']","[0.8783378999978595, 1.0390856999983953, 1.2551003999979002, 1.4069830000007642, 1.6068478999986837, 1.8226732000002812, 2.166566799998691, 2.6465098000007856, 2.887338100001216]",,,,,,,,,,,,23,001,D,2023_Feb_08_1648,student_TT_local,2021.1.4,61.25457954430141,
,None,None,None,None,None,None,None,None,None,None,potent,tandem,6.5,7.5,video&audio/sentence4_TT_3X.mp4,video&audio/origin_TT_3X.mp4,falter,origin,None,,,,,,,,,,,,,,,,,,,,,,,,,,,,,,,,,,,,,,,,,,,0,25,25,15,,,,,,,,,,,,,,,,,,,,,,,,,,,,,,,,,,,,,,,,,,,,,,,,2143.5510612,2150.0665407999986,None, tandem,"['t', 'a', 'n', 'd', 'e', 'm', 'return']","[0.7200264999992214, 0.9518318999980693, 1.0636326999992889, 1.8313941000014893, 2.023569500001031, 2.375515700001415, 2.7200862999998208]",,,,,,,,,,,,23,001,D,2023_Feb_08_1648,student_TT_local,2021.1.4,61.25457954430141,
,None,None,None,None,None,None,None,None,None,None,legion,campus,6.5,7.5,video&audio/sentence6_TT_3X.mp4,video&audio/allure_TT_3X.mp4,forage,allure,None,,,,,,,,,,,,,,,,,,,,,,,,,,,,,,,,,,,,,,,,,,,0,26,26,29,,,,,,,,,,,,,,,,,,,,,,,,,,,,,,,,,,,,,,,,,,,,,,,,2153.817667799998,2160.3332114000004,None, campus,"['c', 'a', 'm', 'p', 'u', 's', 'return']","[0.6960442000017792, 0.9118020000023535, 1.0634638000010455, 1.311706200001936, 1.552226800002245, 1.655526300000929, 2.0796182000012777]",,,,,,,,,,,,23,001,D,2023_Feb_08_1648,student_TT_local,2021.1.4,61.25457954430141,
,None,None,None,None,None,None,None,None,None,None,pursue,caviar,6.5,7.5,video&audio/sentence3_TT_3X.mp4,video&audio/shrill_TT_3X.mp4,piston,shrill,None,,,,,,,,,,,,,,,,,,,,,,,,,,,,,,,,,,,,,,,,,,,0,27,27,20,,,,,,,,,,,,,,,,,,,,,,,,,,,,,,,,,,,,,,,,,,,,,,,,2163.4599328999975,2169.970942,None, caviar,"['c', 'a', 'v', 'a', 'backspace', 'i', 'a', 'r', 'return']","[0.7549605999993219, 0.9468326999995043, 1.0586820999997144, 1.4340601999974751, 1.7548257999987982, 2.0106526999989, 2.1379972999966412, 2.3541686999997182, 2.8341679999975895]",,,,,,,,,,,,23,001,D,2023_Feb_08_1648,student_TT_local,2021.1.4,61.25457954430141,
,None,None,None,None,None,None,None,None,None,None,novice,primal,19.5,20.5,video&audio/Sentence5_touch_edited.mp4,video&audio/entail_touch_edited.mp4,parcel,entail,None,,,,,,,,,,,,,,,,,,,,,,,,,,,,,,,,,,,,,,,,,,,0,28,28,4,,,,,,,,,,,,,,,,,,,,,,,,,,,,,,,,,,,,,,,,,,,,,,,,2173.8475704999983,2193.357995999999,None, primal#,"['p', 'r', 'i', 'm', 'a', 'l', 'pound', 'return']","[0.7253018999981578, 0.941655599999649, 1.2697967999993125, 1.4452893999987282, 1.5651791999989655, 1.8296417999990808, 2.2291847999986203, 2.3977513999998337]",,,,,,,,,,,,23,001,D,2023_Feb_08_1648,student_TT_local,2021.1.4,61.25457954430141,
,None,None,None,None,None,None,None,None,None,None,critic,binder,19.5,20.5,video&audio/Sentence1_touch_edited.mp4,video&audio/tamper_touch_edited.mp4,confer,tamper,None,,,,,,,,,,,,,,,,,,,,,,,,,,,,,,,,,,,,,,,,,,,0,29,29,12,,,,,,,,,,,,,,,,,,,,,,,,,,,,,,,,,,,,,,,,,,,,,,,,2196.7999179,2216.313432499999,None, binder,"['b', 'i', 'n', 'd', 'e', 'r', 'pound', 'backspace', 'return']","[0.7708242000007886, 0.9707923000023584, 1.194112799999857, 1.546170699999493, 1.7142066000014893, 1.8504768999991938, 2.1944996000020183, 2.6426314000018465, 2.882478400002583]",,,,,,,,,,,,23,001,D,2023_Feb_08_1648,student_TT_local,2021.1.4,61.25457954430141,
,,,,,,,,,,,,,,,,,,,,typingRatingScale.png,"How would you rate your typing performance in the previous section?

Press a number on your keyboard according to the rating scale below to give your answer. Your first answer will be accepted.",,,,,,,,,,,,,,,,,,,,,,,,,,,,,,,,,,,,,,,,,,,,,0,0,0,0,,,,,,,,,,,,,,,,,,,,,,,,,,,,,,,,,,,,,,,,,,,,,,,,,,,['4'],[2.9211900000009337],,,,,,,,,23,001,D,2023_Feb_08_1648,student_TT_local,2021.1.4,61.25457954430141,
,,,,,,,,,,,,,,,,,,,,imageryCheckScale.png,"In the previous section did you imagine yourself typing?

Press a number on your keyboard according to the rating scale below to give your answer. Your first answer will be accepted.",,,,,,,,,,,,,,,,,,,,,,,,,,,,,,,,,,,,,,,,,,,,,0,1,1,1,,,,,,,,,,,,,,,,,,,,,,,,,,,,,,,,,,,,,,,,,,,,,,,,,,,['1'],[3.2170470999990357],,,,,,,,,23,001,D,2023_Feb_08_1648,student_TT_local,2021.1.4,61.25457954430141,
,None,None,None,None,None,None,None,None,None,None,novice,primal,19.5,20.5,video&audio/Sentence5_touch_edited.mp4,video&audio/entail_touch_edited.mp4,parcel,entail,None,,,,,,,,,,,,,,,,,,,,,,,,,,,,,,,,,,,,,,,,,,,,,,,,,,,,,,,,,,,0,0,0,4,,,,,,,,,,,,,,,,None,"['b', 'u', 't', 'e', 'r', 'backspace', 'backspace', 'e', 'r', 'backspace', 'backspace', 't', 'e', 'r', 'return']","[0.8955973000010999, 1.0955779000032635, 1.2241661000007298, 1.4074675000010757, 1.7041580000004615, 1.9519661000013002, 2.0719407000033243, 2.1918426000011095, 2.3353366000010283, 2.8795174000006227, 3.007920300002297, 3.39970220000032, 3.5837929000008444, 3.7601233000023058, 3.93643780000275]",,,,,,,,,,,,,,,,,,,,,,,None,None, entail,"['e', 'n', 't', 'a', 'i', 'l', 'return']","[0.560768300001655, 0.8886894999996002, 1.0805798000001232, 1.4970056999991357, 1.5931285000006028, 1.9764213000016753, 2.4004134999995586]",,,,23,001,D,2023_Feb_08_1648,student_TT_local,2021.1.4,61.25457954430141,
,None,None,None,None,None,None,None,None,None,None,coerce,clergy,6.5,7.5,video&audio/sentence6_TT_3X.mp4,video&audio/portal_TT_3X.mp4,ritual,portal,None,,,,,,,,,,,,,,,,,,,,,,,,,,,,,,,,,,,,,,,,,,,,,,,,,,,,,,,,,,,0,1,1,17,,,,,,,,,,,,,,,,None,,,,,,,,,,,,,,,,,,,,,,,,,,None, portal,"['p', '9', 'p', 'o', 'r', 'backspace', 'backspace', 'backspace', 'o', 't', 'r', 'backspace', 'backspace', 'r', 't', 'a', 'l', 'return']","[0.6668435999999929, 0.8670667000005778, 0.8751293999994232, 1.0988207000009425, 1.4671778000010818, 1.819570300001942, 1.9473326000006637, 2.0753084999996645, 2.291430400000536, 2.5309464000019943, 2.995042000002286, 3.074943700001313, 3.2272143000009237, 3.394774399999733, 3.5948406999996223, 4.011903500002518, 4.299689400002535, 4.547092100001464]",,,,23,001,D,2023_Feb_08_1648,student_TT_local,2021.1.4,61.25457954430141,
,None,None,None,None,None,None,None,None,None,None,infirm,oblige,19.5,20.5,video&audio/Sentence4_touch_edited.mp4,video&audio/mystic_touch_edited.mp4,pulpit,mystic,None,,,,,,,,,,,,,,,,,,,,,,,,,,,,,,,,,,,,,,,,,,,,,,,,,,,,,,,,,,,0,2,2,3,,,,,,,,,,,,,,,,None,,,,,,,,,,,,,,,,,,,,,,,,,,None, mystic,"['m', 'y', 's', 't', 'i', 'c', 'return']","[0.5982128999967244, 0.8772993999991741, 1.0292799999988347, 1.1654289999969478, 1.65415159999975, 1.8060240999984671, 2.325596599999699]",,,,23,001,D,2023_Feb_08_1648,student_TT_local,2021.1.4,61.25457954430141,
,None,None,None,None,None,None,None,None,None,None,sonnet,hearth,19.5,20.5,video&audio/Sentence3_touch_edited.mp4,video&audio/herbal_touch_edited.mp4,hippie,herbal,None,,,,,,,,,,,,,,,,,,,,,,,,,,,,,,,,,,,,,,,,,,,,,,,,,,,,,,,,,,,0,3,3,14,,,,,,,,,,,,,,,,None,,,,,,,,,,,,,,,,,,,,,,,,,,None, herbal,"['h', 'e', 'r', 'b', 'a', 'l', 'return']","[0.4640002000014647, 0.6643724000023212, 0.8241855000014766, 0.9285004000012123, 1.2805403000020306, 1.6568553000033717, 2.2642052000010153]",,,,23,001,D,2023_Feb_08_1648,student_TT_local,2021.1.4,61.25457954430141,
,None,None,None,None,None,None,None,None,None,None,strife,delude,19.5,20.5,video&audio/Sentence2_touch_edited.mp4,video&audio/galley_touch_edited.mp4,tariff,galley,None,,,,,,,,,,,,,,,,,,,,,,,,,,,,,,,,,,,,,,,,,,,,,,,,,,,,,,,,,,,0,4,4,7,,,,,,,,,,,,,,,,None,,,,,,,,,,,,,,,,,,,,,,,,,,None, galley,"['f', 'l', 'a', 'backspace', 'backspace', 'backspace', 'g', 'a', 'l', 'l', 'e', 'y', 'return']","[0.44525679999787826, 0.7176029000002018, 0.9413069000001997, 1.638469499997882, 1.7735706999992544, 2.1973125000004075, 2.725989499998832, 2.9737160000004224, 3.6613080999995873, 3.797225599999365, 3.997987099999591, 4.261149599999044, 4.693230199998652]",,,,23,001,D,2023_Feb_08_1648,student_TT_local,2021.1.4,61.25457954430141,
,None,None,None,None,None,None,None,None,None,None,savant,induce,6.5,7.5,video&audio/sentence4_TT_3X.mp4,video&audio/mussel_TT_3X.mp4,cortex,mussel,None,,,,,,,,,,,,,,,,,,,,,,,,,,,,,,,,,,,,,,,,,,,,,,,,,,,,,,,,,,,0,5,5,21,,,,,,,,,,,,,,,,None,,,,,,,,,,,,,,,,,,,,,,,,,,None, mussel,"['m', 'u', 'd', 'd', 'backspace', 'backspace', 's', 's', 'e', 'l', 'return']","[0.8411874000012176, 1.0417219000009936, 1.192828899998858, 1.368819800001802, 1.9609421000022849, 2.089095700001053, 2.184546500000579, 2.336626799999067, 2.528944900001079, 2.6971183999994537, 3.065510299999005]",,,,23,001,D,2023_Feb_08_1648,student_TT_local,2021.1.4,61.25457954430141,
,None,None,None,None,None,None,None,None,None,None,parole,hamlet,19.5,20.5,video&audio/Sentence4_touch_edited.mp4,video&audio/shroud_touch_edited.mp4,jackal,shroud,None,,,,,,,,,,,,,,,,,,,,,,,,,,,,,,,,,,,,,,,,,,,,,,,,,,,,,,,,,,,0,6,6,9,,,,,,,,,,,,,,,,None,,,,,,,,,,,,,,,,,,,,,,,,,,None, shroud,"['s', 'h', 'o', 'backspace', 'r', 'o', 'u', 'd', 'return']","[0.3543075999987195, 0.482660699999542, 1.082426699998905, 1.9300747999986925, 2.2902074999983597, 2.4025413999988814, 2.690126399997098, 2.9223076999987825, 3.3465300999996543]",,,,23,001,D,2023_Feb_08_1648,student_TT_local,2021.1.4,61.25457954430141,
,None,None,None,None,None,None,None,None,None,None,critic,binder,19.5,20.5,video&audio/Sentence1_touch_edited.mp4,video&audio/tamper_touch_edited.mp4,confer,tamper,None,,,,,,,,,,,,,,,,,,,,,,,,,,,,,,,,,,,,,,,,,,,,,,,,,,,,,,,,,,,0,7,7,12,,,,,,,,,,,,,,,,None,,,,,,,,,,,,,,,,,,,,,,,,,,None, tamper,"['t', 'a', 'n', 'o', 'backspace', 'backspace', 'm', 'o', 'e', 'backspace', 'backspace', 'p', 'e', 'r', 'return']","[0.36539759999868693, 0.6291196999991371, 0.7332420999991882, 1.276883300000918, 1.6213666000003286, 1.7493919000007736, 2.012926300001709, 2.3489856000014697, 2.5013719000016863, 2.9252376000004006, 3.06087910000133, 3.4211022000017692, 3.565316399999574, 3.8048971999996866, 3.99685369999861]",,,,23,001,D,2023_Feb_08_1648,student_TT_local,2021.1.4,61.25457954430141,
,None,None,None,None,None,None,None,None,None,None,brazen,fungal,6.5,7.5,video&audio/sentence5_TT_3X.mp4,video&audio/mucous_TT_3X.mp4,subtle,mucous,None,,,,,,,,,,,,,,,,,,,,,,,,,,,,,,,,,,,,,,,,,,,,,,,,,,,,,,,,,,,0,8,8,22,,,,,,,,,,,,,,,,None,,,,,,,,,,,,,,,,,,,,,,,,,,None, mucous,"['m', 'c', 'u', 'o', 'u', 's', 'backspace', 'backspace', 'backspace', 'backspace', 'u', 'c', 'o', 'u', 's', 'return']","[0.4948182000007364, 0.7345083000000159, 0.7429652999999234, 0.9346370000021125, 1.3516760999991675, 1.5988098999987415, 1.8787300000003597, 1.9507402999988699, 2.0951262999988103, 2.2225201000001107, 2.4946029000020644, 2.8067575999994006, 2.92684139999983, 3.111111099999107, 3.2391373999998905, 3.575198200000159]",,,,23,001,D,2023_Feb_08_1648,student_TT_local,2021.1.4,61.25457954430141,
,None,None,None,None,None,None,None,None,None,None,mirage,shrewd,19.5,20.5,video&audio/Sentence1_touch_edited.mp4,video&audio/revoke_touch_edited.mp4,malady,revoke,None,,,,,,,,,,,,,,,,,,,,,,,,,,,,,,,,,,,,,,,,,,,,,,,,,,,,,,,,,,,0,9,9,6,,,,,,,,,,,,,,,,None,,,,,,,,,,,,,,,,,,,,,,,,,,None, revoke,"['r', 'e', 'v', 'o', 'k', 'e', 'return']","[0.7167979999976524, 0.9967623999982607, 1.5251134999998612, 1.7971881999983452, 2.0846996000000217, 2.23675749999893, 2.6047238999999536]",,,,23,001,D,2023_Feb_08_1648,student_TT_local,2021.1.4,61.25457954430141,
,None,None,None,None,None,None,None,None,None,None,potent,tandem,6.5,7.5,video&audio/sentence4_TT_3X.mp4,video&audio/origin_TT_3X.mp4,falter,origin,None,,,,,,,,,,,,,,,,,,,,,,,,,,,,,,,,,,,,,,,,,,,,,,,,,,,,,,,,,,,0,10,10,15,,,,,,,,,,,,,,,,None,,,,,,,,,,,,,,,,,,,,,,,,,,None, origin,"['o', 'r', 'i', 'g', 'i', 'n', 'return']","[1.106540099997801, 1.2104289999988396, 1.61037529999885, 1.7144483999982185, 1.8583536999976786, 2.04281699999774, 2.5229212999984156]",,,,23,001,D,2023_Feb_08_1648,student_TT_local,2021.1.4,61.25457954430141,
,None,None,None,None,None,None,None,None,None,None,impose,feudal,6.5,7.5,video&audio/sentence3_TT_3X.mp4,video&audio/matron_TT_3X.mp4,subdue,matron,None,,,,,,,,,,,,,,,,,,,,,,,,,,,,,,,,,,,,,,,,,,,,,,,,,,,,,,,,,,,0,11,11,26,,,,,,,,,,,,,,,,None,,,,,,,,,,,,,,,,,,,,,,,,,,None, matron,"['n', 'a', 't', 'r', 'o', 'n', 'backspace', 'backspace', 'backspace', 'backspace', 'backspace', 'backspace', 'm', 'a', 't', 'r', 'o', 'n', 'return']","[0.3379120999998122, 0.45834199999808334, 0.6742568999979994, 0.8502441999989969, 0.9781662999994296, 1.1620154000011098, 1.5945613000003505, 1.7068312000010337, 1.8104195999985677, 1.9379465999991226, 2.0583695999994234, 2.3942784999999276, 2.6180561000001035, 2.794178500000271, 3.4501094999977795, 3.6102783999995154, 3.6659961999976076, 3.8340858000010485, 4.090020899999217]",,,,23,001,D,2023_Feb_08_1648,student_TT_local,2021.1.4,61.25457954430141,
,"This is Section 2.

In this section, your task will be the same as before - that is, to type the word you see on the screen AFTER the typing prompt. However, rather than just seeing the word before typing, you will also see a video of someone typing different words to what you will need to type at different speeds. 

Press 'enter/return' to go to the next page.","This is Section 4. 

In this section, your task will be the same as before - that is, to type the word you see on the screen after the typing prompt. You will see a video again, like in Section 2, only this time, the video will show someone the same word that you must type at different speeds. 

Press 'enter/return' to go to the next page.",video&audio/Example_AOMI_layout.png,1.6,0.6,afford,19.5,20.5,video&audio/amount_touch_edited.mp4,video&audio/afford_touch_edited.mp4,vanity,hinder,19.5,20.5,video&audio/Sentence1_touch_edited.mp4,video&audio/breach_touch_edited.mp4,matrix,breach,1 = AOMIgen,,,,,,,,,,,,,,,,,,,,,,,,,,,,,,,,,,,,,,,,,,,,,,,,,,,,,,,,,,,0,12,12,0,,,,,,,,,,,,,,,,None,,,,,,,,,,,,,,,,,,,,,,,,,,None, breach,"['b', 'r', 'e', 's', 'backspace', 'a', 'c', 'h', 'pound', 'backspace', 'return']","[0.4261853999996674, 0.6981938000026275, 0.9535735000026762, 1.3459746000007726, 1.761377499999071, 1.8573366999989958, 2.3295271000024513, 2.4178587999995216, 2.8895514000032563, 3.377332399999432, 3.897739400003047]",,,,23,001,D,2023_Feb_08_1648,student_TT_local,2021.1.4,61.25457954430141,
,None,None,None,None,None,None,None,None,None,None,deduct,jailer,6.5,7.5,video&audio/sentence5_TT_3X.mp4,video&audio/nettle_TT_3X.mp4,plasma,nettle,None,,,,,,,,,,,,,,,,,,,,,,,,,,,,,,,,,,,,,,,,,,,,,,,,,,,,,,,,,,,0,13,13,16,,,,,,,,,,,,,,,,None,,,,,,,,,,,,,,,,,,,,,,,,,,None, nettle,"['n', 'd', 'backspace', 'e', 't', 't', 'l', 'e', 'return']","[0.7118852999992669, 0.9124744000000646, 1.3760366999995313, 1.4880174999998417, 1.6639999999970314, 1.8318707999933395, 1.920103199998266, 2.0719294999944395, 2.3679015999950934]",,,,23,001,D,2023_Feb_08_1648,student_TT_local,2021.1.4,61.25457954430141,
,None,None,None,None,None,None,None,None,None,None,pursue,caviar,6.5,7.5,video&audio/sentence3_TT_3X.mp4,video&audio/shrill_TT_3X.mp4,piston,shrill,None,,,,,,,,,,,,,,,,,,,,,,,,,,,,,,,,,,,,,,,,,,,,,,,,,,,,,,,,,,,0,14,14,20,,,,,,,,,,,,,,,,None,,,,,,,,,,,,,,,,,,,,,,,,,,None, shrill,"['s', 'h', 'r', 'i', 'l', 'l', 'return']","[0.48376180000195745, 0.5644613000040408, 0.7725189999982831, 0.9084557000023779, 1.1562569000016083, 1.3165107000022545, 1.9090410999997403]",,,,23,001,D,2023_Feb_08_1648,student_TT_local,2021.1.4,61.25457954430141,
,None,None,None,None,None,None,None,None,None,None,fodder,trench,6.5,7.5,video&audio/sentence4_TT_3X.mp4,video&audio/ethnic_TT_3X.mp4,botany,ethnic,None,,,,,,,,,,,,,,,,,,,,,,,,,,,,,,,,,,,,,,,,,,,,,,,,,,,,,,,,,,,0,15,15,27,,,,,,,,,,,,,,,,None,,,,,,,,,,,,,,,,,,,,,,,,,,None, ethnic,"['e', 'h', 't', 'i', 'n', 'backspace', 'backspace', 'backspace', 't', 'backspace', 'backspace', 't', 'h', 'n', 'i', 'c', 'e', 'backspace', 'pound', 'return']","[0.6240930999992997, 0.7999901000002865, 0.824486400000751, 1.0561893999984022, 1.351776499999687, 1.7757935999979964, 1.91196520000085, 2.0399484999943525, 2.207849200000055, 2.567831299995305, 2.848355199996149, 3.095668999994814, 3.2082483999984106, 3.416622400000051, 3.7198733999975957, 3.879850199999055, 4.079764299996896, 4.3917661999948905, 4.647937299996556, 4.655783199996222]",,,,23,001,D,2023_Feb_08_1648,student_TT_local,2021.1.4,61.25457954430141,
,"Remember to type as QUICKLY and ACCURATELY as possible after the 'get ready' prompt.

Ask the experimenter any questions now. Please put on the headphones.

You will get one practice trial. Press 'enter/return' when you are ready to start the practice.","Remember to type as QUICKLY and ACCURATELY as you can after the 'get ready' prompt.

Ask the experimenter any questions now. Please put on the headphones.

You will get one practice trial. Press 'enter/return' when you are ready to start the practice.",video&audio/Example_AOMI_total.png,1.8,0.7,None,None,None,None,None,jargon,oppose,19.5,20.5,video&audio/Sentence3_touch_edited.mp4,video&audio/ghetto_touch_edited.mp4,frugal,ghetto,None,,,,,,,,,,,,,,,,,,,,,,,,,,,,,,,,,,,,,,,,,,,,,,,,,,,,,,,,,,,0,16,16,2,,,,,,,,,,,,,,,,None,,,,,,,,,,,,,,,,,,,,,,,,,,None, ghetto,"['f', 'h', 'backspace', 'backspace', 'g', 'h', 'e', 't', 't', 'o', 'return']","[0.6694401999993715, 0.7972145000021555, 1.1580732000002172, 1.3015792000005604, 1.6541548000022885, 1.7735267000025488, 2.069253599998774, 2.5971811000054004, 2.75806260000536, 2.9254042000029585, 3.3253968999997596]",,,,23,001,D,2023_Feb_08_1648,student_TT_local,2021.1.4,61.25457954430141,
,None,None,None,None,None,None,None,None,None,None,upkeep,parish,6.5,7.5,video&audio/sentence5_TT_3X.mp4,video&audio/gullet_TT_3X.mp4,picket,gullet,None,,,,,,,,,,,,,,,,,,,,,,,,,,,,,,,,,,,,,,,,,,,,,,,,,,,,,,,,,,,0,17,17,28,,,,,,,,,,,,,,,,None,,,,,,,,,,,,,,,,,,,,,,,,,,None, gullet,"['g', 'u', 'l', 'l', 'e', 't', 'return']","[0.7121127000064007, 0.7931587999992189, 1.0167759000032675, 1.1441202999994857, 1.336068200005684, 1.5218214000051375, 1.7773243000046932]",,,,23,001,D,2023_Feb_08_1648,student_TT_local,2021.1.4,61.25457954430141,
,None,None,None,None,None,None,None,None,None,None,manure,girdle,6.5,7.5,video&audio/sentence6_TT_3X.mp4,video&audio/linear_TT_3X.mp4,belfry,linear,None,,,,,,,,,,,,,,,,,,,,,,,,,,,,,,,,,,,,,,,,,,,,,,,,,,,,,,,,,,,0,18,18,23,,,,,,,,,,,,,,,,None,,,,,,,,,,,,,,,,,,,,,,,,,,None, linear,"['l', 'i', 'n', 'h', 'e', 'backspace', 'backspace', 'e', 'a', 'r', 'return']","[0.4458158000052208, 0.7104214999999385, 0.9904844000047888, 0.997668000003614, 1.2377412999994704, 1.758350200005225, 1.8945550000062212, 2.5188704000029247, 2.950384200004919, 3.197684200000367, 3.2863613000008627]",,,,23,001,D,2023_Feb_08_1648,student_TT_local,2021.1.4,61.25457954430141,
,None,None,None,None,None,None,None,None,None,None,musket,meddle,6.5,7.5,video&audio/sentence2_TT_3X.mp4,video&audio/divert_TT_3X.mp4,kipper,divert,None,,,,,,,,,,,,,,,,,,,,,,,,,,,,,,,,,,,,,,,,,,,,,,,,,,,,,,,,,,,0,19,19,25,,,,,,,,,,,,,,,,None,,,,,,,,,,,,,,,,,,,,,,,,,,None, divert,"['d', 'i', 'v', 'e', 'r', 't', 'return']","[0.45638099999632686, 0.6234382999973604, 0.7279240999996546, 0.9916337999966345, 1.1438573999985238, 1.4077990999940084, 1.8075094999949215]",,,,23,001,D,2023_Feb_08_1648,student_TT_local,2021.1.4,61.25457954430141,
,None,None,None,None,None,None,None,None,None,None,revolt,joiner,19.5,20.5,video&audio/Sentence6_touch_edited.mp4,video&audio/apathy_touch_edited.mp4,virile,apathy,None,,,,,,,,,,,,,,,,,,,,,,,,,,,,,,,,,,,,,,,,,,,,,,,,,,,,,,,,,,,0,20,20,5,,,,,,,,,,,,,,,,None,,,,,,,,,,,,,,,,,,,,,,,,,,None, apathy,"['a', 'p', 'a', 't', 'h', 'y', 'return']","[0.524449900003674, 0.771910299998126, 1.3557270000019344, 1.6762386999980663, 1.723876600000949, 1.9407620999991195, 2.5889305000018794]",,,,23,001,D,2023_Feb_08_1648,student_TT_local,2021.1.4,61.25457954430141,
,None,None,None,None,None,None,None,None,None,None,sherry,zephyr,19.5,20.5,video&audio/Sentence5_touch_edited.mp4,video&audio/fusion_touch_edited.mp4,obsess,fusion,None,,,,,,,,,,,,,,,,,,,,,,,,,,,,,,,,,,,,,,,,,,,,,,,,,,,,,,,,,,,0,21,21,10,,,,,,,,,,,,,,,,"['f', 'u']",,,,,,,,,,,,,,,,,,,,,,,,,,None, fusion,"['s', 'backspace', 'f', 'u', 's', 'i', 'o', 'n', 'return']","[0.6375093999959063, 1.2543201000007684, 1.4058048000006238, 1.5492895999996108, 1.837250500000664, 2.0774932999993325, 2.2295673999979044, 2.8134348999956273, 3.165465599995514]","[0.8202381000010064, 0.9567297000030521]",,,23,001,D,2023_Feb_08_1648,student_TT_local,2021.1.4,61.25457954430141,
,None,None,None,None,None,None,None,None,None,None,satire,mangle,6.5,7.5,video&audio/sentence1_TT_3X.mp4,video&audio/warble_TT_3X.mp4,devise,warble,None,,,,,,,,,,,,,,,,,,,,,,,,,,,,,,,,,,,,,,,,,,,,,,,,,,,,,,,,,,,0,22,22,24,,,,,,,,,,,,,,,,None,,,,,,,,,,,,,,,,,,,,,,,,,,None, warble,"['w', 'a', 'r', 'b', 'l', 'e', 'return']","[0.8962259000036283, 1.0810965000055148, 1.2884273000017856, 1.4411120000004303, 1.624543600002653, 1.720728100000997, 2.0892320000057225]",,,,23,001,D,2023_Feb_08_1648,student_TT_local,2021.1.4,61.25457954430141,
,"While you watch the video, imagine yourself typing the word on the screen, like how you did in the imagery practice. While you watch the video and imagine this, rest your hands on your keyboard but DO NOT type until AFTER you see the typing prompt.

Press 'enter/return' to go to the next page.","While watching the video, imagine yourself typing the word on the screen, like how you did in the imagery practice. While you watch the video and imagine this, rest your hands on your keyboard but DO NOT type until AFTER you see the typing prompt.

Press 'enter/return' to go to the next page.",video&audio/Example_AOMI_imagine.png,1.6,1,butter,6.5,7.5,video&audio/amount_TT_3X.mp4,video&audio/butter_TT_3X.mp4,plight,metric,19.5,20.5,video&audio/Sentence2_touch_edited.mp4,video&audio/eatery_touch_edited.mp4,ascend,eatery,2 = AOMIspec,,,,,,,,,,,,,,,,,,,,,,,,,,,,,,,,,,,,,,,,,,,,,,,,,,,,,,,,,,,0,23,23,1,,,,,,,,,,,,,,,,None,,,,,,,,,,,,,,,,,,,,,,,,,,None, eatery,"['e', 'a', 't', 'e', 'r', 'y', 'return']","[0.48577830000431277, 0.9026196000049822, 1.1822920000049635, 1.5018134000056307, 1.7177545000013197, 1.9016941000008956, 2.7414839000048232]",,,,23,001,D,2023_Feb_08_1648,student_TT_local,2021.1.4,61.25457954430141,
,None,None,None,None,None,None,None,None,None,None,ordain,patent,19.5,20.5,video&audio/Sentence6_touch_edited.mp4,video&audio/defame_touch_edited.mp4,covert,defame,None,,,,,,,,,,,,,,,,,,,,,,,,,,,,,,,,,,,,,,,,,,,,,,,,,,,,,,,,,,,0,24,24,11,,,,,,,,,,,,,,,,None,,,,,,,,,,,,,,,,,,,,,,,,,,None, defame,"['d', 'e', 'f', 'a', 'n', 'e', 'backspace', 'backspace', 'm', 'e', 'pound', 'backspace', 'return']","[0.5278582000028109, 0.88737140000012, 1.6152019000001019, 1.8632800000050338, 2.0793521000014152, 2.319600700000592, 2.6794455999988713, 2.8152078000057372, 3.087440700001025, 3.247330199999851, 3.5992445000010775, 4.0554045000026235, 4.287350900005549]",,,,23,001,D,2023_Feb_08_1648,student_TT_local,2021.1.4,61.25457954430141,
,None,None,None,None,None,None,None,None,None,None,murmur,cobble,6.5,7.5,video&audio/sentence2_TT_3X.mp4,video&audio/export_TT_3X.mp4,cervix,export,None,,,,,,,,,,,,,,,,,,,,,,,,,,,,,,,,,,,,,,,,,,,,,,,,,,,,,,,,,,,0,25,25,19,,,,,,,,,,,,,,,,None,,,,,,,,,,,,,,,,,,,,,,,,,,None, export,"['e', 'x', 'p', 'o', 'r', 't', 'return']","[0.6677075999978115, 0.8993819999959669, 1.0351757999960682, 1.2510235999943689, 1.3637180000005173, 1.5310766999973566, 1.8030536000005668]",,,,23,001,D,2023_Feb_08_1648,student_TT_local,2021.1.4,61.25457954430141,
,None,None,None,None,None,None,None,None,None,None,goblet,befall,19.5,20.5,video&audio/Sentence3_touch_edited.mp4,video&audio/ration_touch_edited.mp4,solemn,ration,None,,,,,,,,,,,,,,,,,,,,,,,,,,,,,,,,,,,,,,,,,,,,,,,,,,,,,,,,,,,0,26,26,8,,,,,,,,,,,,,,,,None,,,,,,,,,,,,,,,,,,,,,,,,,,None, ration,"['r', 's', 'i', 'o', 'backspace', 'backspace', 'backspace', 'a', 'r', 'i', 'o', 'backspace', 'backspace', 'backspace', 't', 'i', 'o', 'n', 'return']","[0.7032837000006111, 0.9430656999975326, 1.2470379000005778, 1.4308830000009038, 2.0310623999976087, 2.174978800001554, 2.3118995999975596, 2.5509353000015835, 3.0792424000028404, 3.191397100003087, 3.342898900002183, 3.7827708999975584, 3.902769799999078, 4.031283399999666, 4.158941599998798, 4.287062800001877, 4.446886800003995, 4.631348800001433, 5.231492899998557]",,,,23,001,D,2023_Feb_08_1648,student_TT_local,2021.1.4,61.25457954430141,
,None,None,None,None,None,None,None,None,None,None,legion,campus,6.5,7.5,video&audio/sentence6_TT_3X.mp4,video&audio/allure_TT_3X.mp4,forage,allure,None,,,,,,,,,,,,,,,,,,,,,,,,,,,,,,,,,,,,,,,,,,,,,,,,,,,,,,,,,,,0,27,27,29,,,,,,,,,,,,,,,,None,,,,,,,,,,,,,,,,,,,,,,,,,,None, allure,"['a', 'l', 'l', 'u', 'r', 'e', 'return']","[0.46894829999655485, 0.6215535999945132, 0.8130113000006531, 1.0610142000004998, 1.2455416999946465, 1.4611326999947778, 1.6934039999978268]",,,,23,001,D,2023_Feb_08_1648,student_TT_local,2021.1.4,61.25457954430141,
,None,None,None,None,None,None,None,None,None,None,quarry,septic,19.5,20.5,video&audio/Sentence2_touch_edited.mp4,video&audio/innate_touch_edited.mp4,neural,innate,None,,,,,,,,,,,,,,,,,,,,,,,,,,,,,,,,,,,,,,,,,,,,,,,,,,,,,,,,,,,0,28,28,13,,,,,,,,,,,,,,,,None,,,,,,,,,,,,,,,,,,,,,,,,,,None, innate,"['i', 'n', 'n', 'a', 't', 'e', 'return']","[0.647992800004431, 1.0717719000022043, 1.2242372000036994, 1.3766201000034926, 1.5120324000017717, 1.7609855000046082, 2.495871500002977]",,,,23,001,D,2023_Feb_08_1648,student_TT_local,2021.1.4,61.25457954430141,
,None,None,None,None,None,None,None,None,None,None,convoy,output,6.5,7.5,video&audio/sentence1_TT_3X.mp4,video&audio/uphold_TT_3X.mp4,debtor,uphold,None,,,,,,,,,,,,,,,,,,,,,,,,,,,,,,,,,,,,,,,,,,,,,,,,,,,,,,,,,,,0,29,29,18,,,,,,,,,,,,,,,,None,,,,,,,,,,,,,,,,,,,,,,,,,,None, uphold,"['u', 'p', 'o', 'backspace', 'h', 'o', 'l', 'r', 'backspace', 'd', 'return']","[0.37236500000290107, 0.4125170000042999, 0.844577500000014, 1.164143400004832, 1.3244747999997344, 1.4120766000050935, 1.5960498000058578, 1.6522308999992674, 2.0840166000052704, 2.3000396999996156, 2.7725909000000684]",,,,23,001,D,2023_Feb_08_1648,student_TT_local,2021.1.4,61.25457954430141,
,,,,,,,,,,,,,,,,,,,,typingRatingScale.png,"How would you rate your typing performance in the previous section?

Press a number on your keyboard according to the rating scale below to give your answer. Your first answer will be accepted.",,,,,,,,,,,,,,,,,,,,,,,,,,,,,,,,,,,,,,,,,,,,,,,,,,,,,,,,,,,,,0,0,0,0,,,,,,,,,,,,,,,,,,,,,,,,,,,,,,,,,,,,,,,,,,,['4'],[5.808118200002355],23,001,D,2023_Feb_08_1648,student_TT_local,2021.1.4,61.25457954430141,
,,,,,,,,,,,,,,,,,,,,visualImageryScale.png,"While imagining yourself typing, how clear was your visual image?

Press a number on your keyboard according to the rating scale below to give your answer. Your first answer will be accepted.",,,,,,,,,,,,,,,,,,,,,,,,,,,,,,,,,,,,,,,,,,,,,,,,,,,,,,,,,,,,,0,1,1,1,,,,,,,,,,,,,,,,,,,,,,,,,,,,,,,,,,,,,,,,,,,['3'],[8.987124700004642],23,001,D,2023_Feb_08_1648,student_TT_local,2021.1.4,61.25457954430141,
,,,,,,,,,,,,,,,,,,,,kinestheticImageryScale.png,"While imagining yourself typing, how intense were the sensations associated with the imagined movement?

Press a number on your keyboard according to the rating scale below to give your answer. Your first answer will be accepted.",,,,,,,,,,,,,,,,,,,,,,,,,,,,,,,,,,,,,,,,,,,,,,,,,,,,,,,,,,,,,0,2,2,2,,,,,,,,,,,,,,,,,,,,,,,,,,,,,,,,,,,,,,,,,,,['4'],[5.145948000004864],23,001,D,2023_Feb_08_1648,student_TT_local,2021.1.4,61.25457954430141,
