pracWords,instr_1,instr_2,AOMI_Ima,AOMI_w,AOMI_h,practiceWords,prac_time,prac_bkgd_time,pracVid_1,pracVid_2,baseline_words,control_words,cont_time,cont_bgkd_time,first_vids,second_vids,AOMIfirst_words,AOMIsecond_words,Order,ratingScale,rateInstr,instructLoop.thisRepN,instructLoop.thisTrialN,instructLoop.thisN,instructLoop.thisIndex,practice_control.thisRepN,practice_control.thisTrialN,practice_control.thisN,practice_control.thisIndex,trials_1.thisRepN,trials_1.thisTrialN,trials_1.thisN,trials_1.thisIndex,baseRateLoop.thisRepN,baseRateLoop.thisTrialN,baseRateLoop.thisN,baseRateLoop.thisIndex,AOMIinstrLoop1.thisRepN,AOMIinstrLoop1.thisTrialN,AOMIinstrLoop1.thisN,AOMIinstrLoop1.thisIndex,AOMIpracLoop.thisRepN,AOMIpracLoop.thisTrialN,AOMIpracLoop.thisN,AOMIpracLoop.thisIndex,trials_2.thisRepN,trials_2.thisTrialN,trials_2.thisN,trials_2.thisIndex,AOMI1rateLoop.thisRepN,AOMI1rateLoop.thisTrialN,AOMI1rateLoop.thisN,AOMI1rateLoop.thisIndex,contInstrLoop.thisRepN,contInstrLoop.thisTrialN,contInstrLoop.thisN,contInstrLoop.thisIndex,contPracLoop.thisRepN,contPracLoop.thisTrialN,contPracLoop.thisN,contPracLoop.thisIndex,trials_3.thisRepN,trials_3.thisTrialN,trials_3.thisN,trials_3.thisIndex,contRateLoop.thisRepN,contRateLoop.thisTrialN,contRateLoop.thisN,contRateLoop.thisIndex,AOMIinstrLoop2.thisRepN,AOMIinstrLoop2.thisTrialN,AOMIinstrLoop2.thisN,AOMIinstrLoop2.thisIndex,AOMIpracLoop2.thisRepN,AOMIpracLoop2.thisTrialN,AOMIpracLoop2.thisN,AOMIpracLoop2.thisIndex,trials_4.thisRepN,trials_4.thisTrialN,trials_4.thisN,trials_4.thisIndex,AOMI2rateLoop.thisRepN,AOMI2rateLoop.thisTrialN,AOMI2rateLoop.thisN,AOMI2rateLoop.thisIndex,pracBkgdKeys.keys,pracKeys.keys,pracKeys.rt,pracBkgdKeys.rt,baseBkgdKeys.keys,base_typedWord,baseKeys.keys,baseKeys.rt,baseBkgdKeys.rt,baseRateTypeKey.keys,baseRateTypeKey.rt,AOMI1_BkgdKeys.keys,AOMI_promptBkgdKeys.keys,AOMI1pracKeys.keys,AOMI1pracKeys.rt,AOMI1bkdgKeys.keys,AOMI1_typedWord,AOMI1keys.keys,AOMI1keys.rt,AOMI_promptBkgdKeys.rt,AOMI1rateTypeKey.keys,AOMI1rateTypeKey.rt,polygon_prac.started,polygon_prac.stopped,contBkgdKeys_prac.keys,contPrac_typedWord,contKeys_prac.keys,contKeys_prac.rt,polygon.started,polygon.stopped,contBkgdKeys.keys,cont_typedWord,contKeys.keys,contKeys.rt,contTypeKey.keys,contTypeKey.rt,bkgdkeys_prac2.keys,bkgdKeys4.keys,AOMI2_typedWord,keyboardCom4.keys,keyboardCom4.rt,AOMI2typeKey.keys,AOMI2typeKey.rt,participant,session,group,date,expName,psychopyVersion,frameRate,
replay,,,,,,,,,,,,,,,,,,,,,,,,,,0,0,0,1,,,,,,,,,,,,,,,,,,,,,,,,,,,,,,,,,,,,,,,,,,,,,,,,,,,,,,,,,None,"['r', 'e', 'p', 'l', 'a', 'y', 'return']","[1.1555852999990748, 1.2677891999992426, 1.5314139000001887, 1.8036369000001287, 1.964020299999902, 2.2517721999993228, 3.123589799999536]",,,,,,,,,,,,,,,,,,,,,,,,,,,,,,,,,,,,,,,,,24,001,C,2023_Feb_08_1047,student_TT_local,2021.1.4,60.05154824905615,
height,,,,,,,,,,,,,,,,,,,,,,,,,,0,1,1,0,,,,,,,,,,,,,,,,,,,,,,,,,,,,,,,,,,,,,,,,,,,,,,,,,,,,,,,,,"['h', 'e', 'i', 'g', 'h', 't']","['h', 'e', 'i', 'g', 'h', 't', 'return']","[1.2081431000005978, 1.4805240999994567, 1.6563998999990872, 1.8801012000003539, 1.9285565999998653, 2.416686499998832, 2.8404689999988477]","[1.701796600000307, 1.9177894000004017, 2.0130595000009635, 2.213621700000658, 2.3169171000008646, 2.5810842999999295]",,,,,,,,,,,,,,,,,,,,,,,,,,,,,,,,,,,,,,,,24,001,C,2023_Feb_08_1047,student_TT_local,2021.1.4,60.05154824905615,
update,,,,,,,,,,,,,,,,,,,,,,,,,,0,2,2,2,,,,,,,,,,,,,,,,,,,,,,,,,,,,,,,,,,,,,,,,,,,,,,,,,,,,,,,,,None,"['u', 'p', 'd', 'a', 't', 'e', 'return']","[0.3967216000000917, 0.7399546000015107, 0.9970694000003277, 1.107638000001316, 1.4119150000005902, 1.5321768000012526, 2.2845813000003545]",,,,,,,,,,,,,,,,,,,,,,,,,,,,,,,,,,,,,,,,,24,001,C,2023_Feb_08_1047,student_TT_local,2021.1.4,60.05154824905615,
,None,None,None,None,None,None,None,None,None,None,gullet,picket,6.5,7.5,video&audio/upkeep_TT_3X.mp4,video&audio/sentence5_TT_3X.mp4,upkeep,parish,None,,,,,,,,,,,0,0,0,28,,,,,,,,,,,,,,,,,,,,,,,,,,,,,,,,,,,,,,,,,,,,,,,,,,,,,,,,,None, gullet,"['g', 'u', 'l', 'l', 'e', 't', 'return']","[0.8637898999986646, 1.0481669999990118, 1.327452199999243, 1.487787299998672, 1.704665399998703, 2.063695299999381, 2.5115320999993855]",,,,,,,,,,,,,,,,,,,,,,,,,,,,,,,,,,,,24,001,C,2023_Feb_08_1047,student_TT_local,2021.1.4,60.05154824905615,
,None,None,None,None,None,None,None,None,None,None,warble,devise,6.5,7.5,video&audio/satire_TT_3X.mp4,video&audio/sentence1_TT_3X.mp4,satire,mangle,None,,,,,,,,,,,0,1,1,24,,,,,,,,,,,,,,,,,,,,,,,,,,,,,,,,,,,,,,,,,,,,,,,,,,,,,,,,,"['w', 'a']", warble,"['r', 'backspace', 'w', 'a', 'r', 'b', 'l', 'e', 'return']","[0.16354820000015025, 1.6281724000000395, 2.115871199999674, 2.6519825999985187, 2.915498200000002, 3.2919298999986495, 3.7876517999993666, 4.0118544999986625, 4.427628099998401]","[2.600246899999547, 2.928013099999589]",,,,,,,,,,,,,,,,,,,,,,,,,,,,,,,,,,,24,001,C,2023_Feb_08_1047,student_TT_local,2021.1.4,60.05154824905615,
,None,None,None,None,None,None,None,None,None,None,linear,belfry,6.5,7.5,video&audio/manure_TT_3X.mp4,video&audio/sentence6_TT_3X.mp4,manure,girdle,None,,,,,,,,,,,0,2,2,23,,,,,,,,,,,,,,,,,,,,,,,,,,,,,,,,,,,,,,,,,,,,,,,,,,,,,,,,,None, linear,"['l', 'i', 'n', 'e', 'a', 'r', 'return']","[0.5487811000002694, 0.8685936000001675, 1.1573888000002626, 1.3249052999999549, 1.492932600000131, 1.8126492999999755, 2.0614696000011463]",,,,,,,,,,,,,,,,,,,,,,,,,,,,,,,,,,,,24,001,C,2023_Feb_08_1047,student_TT_local,2021.1.4,60.05154824905615,
,None,None,None,None,None,None,None,None,None,None,shrill,piston,6.5,7.5,video&audio/pursue_TT_3X.mp4,video&audio/sentence3_TT_3X.mp4,pursue,caviar,None,,,,,,,,,,,0,3,3,20,,,,,,,,,,,,,,,,,,,,,,,,,,,,,,,,,,,,,,,,,,,,,,,,,,,,,,,,,None, shrill,"['s', 'h', 'r', 'i', 'l', 'l', 'return']","[0.5499792999999045, 0.7103200999990804, 1.0388163000006898, 1.1982246000006853, 1.5191914999995788, 1.7425533999994514, 2.1502510999998776]",,,,,,,,,,,,,,,,,,,,,,,,,,,,,,,,,,,,24,001,C,2023_Feb_08_1047,student_TT_local,2021.1.4,60.05154824905615,
,"While you watch the video, imagine yourself typing the word on the screen, like how you did in the imagery practice. While you watch the video and imagine this, rest your hands on your keyboard but DO NOT type until AFTER you see the typing prompt.

Press 'enter/return' to go to the next page.","While watching the video, imagine yourself typing the word on the screen, like how you did in the imagery practice. While you watch the video and imagine this, rest your hands on your keyboard but DO NOT type until AFTER you see the typing prompt.

Press 'enter/return' to go to the next page.",video&audio/Example_AOMI_imagine.png,1.6,1,butter,6.5,7.5,video&audio/butter_TT_3X.mp4,video&audio/amount_TT_3X.mp4,eatery,ascend,19.5,20.5,video&audio/plight_touch_edited.mp4,video&audio/Sentence2_touch_edited.mp4,plight,metric,2 = AOMIgen,,,,,,,,,,,0,4,4,1,,,,,,,,,,,,,,,,,,,,,,,,,,,,,,,,,,,,,,,,,,,,,,,,,,,,,,,,,None, eatery,"['e', 'a', 't', 'e', 'r', 'y', 'return']","[0.7043604999998934, 0.9759113999989495, 1.296076799999355, 1.4245049000001018, 1.7361887999995815, 1.8965392999998585, 2.6083003999992798]",,,,,,,,,,,,,,,,,,,,,,,,,,,,,,,,,,,,24,001,C,2023_Feb_08_1047,student_TT_local,2021.1.4,60.05154824905615,
,None,None,None,None,None,None,None,None,None,None,mystic,pulpit,19.5,20.5,video&audio/infirm_touch_edited.mp4,video&audio/Sentence4_touch_edited.mp4,infirm,oblige,None,,,,,,,,,,,0,5,5,3,,,,,,,,,,,,,,,,,,,,,,,,,,,,,,,,,,,,,,,,,,,,,,,,,,,,,,,,,None, mystic,"['m', 'y', 's', 't', 'i', 'c', 'return']","[0.6886809999996331, 1.0722093999993376, 1.3126563999994687, 1.7125314999993861, 2.0004214999989927, 2.6402452000002086, 2.961469899999429]",,,,,,,,,,,,,,,,,,,,,,,,,,,,,,,,,,,,24,001,C,2023_Feb_08_1047,student_TT_local,2021.1.4,60.05154824905615,
,None,None,None,None,None,None,None,None,None,None,shroud,jackal,19.5,20.5,video&audio/parole_touch_edited.mp4,video&audio/Sentence4_touch_edited.mp4,parole,hamlet,None,,,,,,,,,,,0,6,6,9,,,,,,,,,,,,,,,,,,,,,,,,,,,,,,,,,,,,,,,,,,,,,,,,,,,,,,,,,None, shround,"['s', 'h', 'r', 'o', 'u', 'n', 'd', 'return']","[0.7228918999990128, 0.8907233999998425, 1.123478100000284, 1.4269961999998486, 1.5550397000006342, 1.883646399999634, 2.3789247999993677, 2.826932599999054]",,,,,,,,,,,,,,,,,,,,,,,,,,,,,,,,,,,,24,001,C,2023_Feb_08_1047,student_TT_local,2021.1.4,60.05154824905615,
,None,None,None,None,None,None,None,None,None,None,entail,parcel,19.5,20.5,video&audio/novice_touch_edited.mp4,video&audio/Sentence5_touch_edited.mp4,novice,primal,None,,,,,,,,,,,0,7,7,4,,,,,,,,,,,,,,,,,,,,,,,,,,,,,,,,,,,,,,,,,,,,,,,,,,,,,,,,,['e'], entail,"['e', 'n', 't', 'a', 'i', 'l', 'return']","[1.0049800999986473, 1.3097653999993781, 1.6458473999991838, 2.0932541000001947, 2.317764299999908, 2.6452341999993223, 3.0625779000001785]",[2.9683160000004136],,,,,,,,,,,,,,,,,,,,,,,,,,,,,,,,,,,24,001,C,2023_Feb_08_1047,student_TT_local,2021.1.4,60.05154824905615,
,None,None,None,None,None,None,None,None,None,None,revoke,malady,19.5,20.5,video&audio/mirage_touch_edited.mp4,video&audio/Sentence1_touch_edited.mp4,mirage,shrewd,None,,,,,,,,,,,0,8,8,6,,,,,,,,,,,,,,,,,,,,,,,,,,,,,,,,,,,,,,,,,,,,,,,,,,,,,,,,,None, revoke,"['r', 'e', 'v', 'o', 'k', 'd', 'backspace', 'e', 'return']","[0.6122993999997561, 0.764885200000208, 1.1161882000014884, 1.261032600001272, 1.4763309999998455, 1.6683161000000837, 2.1962128000013763, 2.7161111000004894, 3.2048531000000366]",,,,,,,,,,,,,,,,,,,,,,,,,,,,,,,,,,,,24,001,C,2023_Feb_08_1047,student_TT_local,2021.1.4,60.05154824905615,
,None,None,None,None,None,None,None,None,None,None,apathy,virile,19.5,20.5,video&audio/revolt_touch_edited.mp4,video&audio/Sentence6_touch_edited.mp4,revolt,joiner,None,,,,,,,,,,,0,9,9,5,,,,,,,,,,,,,,,,,,,,,,,,,,,,,,,,,,,,,,,,,,,,,,,,,,,,,,,,,None, apathy,"['a', 'p', 'a', 't', 'h', 'y', 'return']","[0.8249242000001686, 1.0729865000012069, 1.6250331999999617, 1.9610038000009808, 2.2971772000000783, 2.6250285000005533, 2.9372696000009455]",,,,,,,,,,,,,,,,,,,,,,,,,,,,,,,,,,,,24,001,C,2023_Feb_08_1047,student_TT_local,2021.1.4,60.05154824905615,
,None,None,None,None,None,None,None,None,None,None,export,cervix,6.5,7.5,video&audio/murmur_TT_3X.mp4,video&audio/sentence2_TT_3X.mp4,murmur,cobble,None,,,,,,,,,,,0,10,10,19,,,,,,,,,,,,,,,,,,,,,,,,,,,,,,,,,,,,,,,,,,,,,,,,,,,,,,,,,None, export,"['e', 'x', 'p', 'o', 'r', 't', 'return']","[0.8408505000006699, 1.1524504000008164, 1.4244120000003022, 1.712489400000777, 1.8166876000013872, 2.2485496000008425, 2.7444628000012017]",,,,,,,,,,,,,,,,,,,,,,,,,,,,,,,,,,,,24,001,C,2023_Feb_08_1047,student_TT_local,2021.1.4,60.05154824905615,
,None,None,None,None,None,None,None,None,None,None,allure,forage,6.5,7.5,video&audio/legion_TT_3X.mp4,video&audio/sentence6_TT_3X.mp4,legion,campus,None,,,,,,,,,,,0,11,11,29,,,,,,,,,,,,,,,,,,,,,,,,,,,,,,,,,,,,,,,,,,,,,,,,,,,,,,,,,None, allure,"['a', 'l', 'l', 'u', 'r', 'e', 'return']","[0.8513401999989583, 1.1231305999990582, 1.411347699999169, 1.6914436999995814, 1.979250200000024, 2.2354605000000447, 2.5552979999993113]",,,,,,,,,,,,,,,,,,,,,,,,,,,,,,,,,,,,24,001,C,2023_Feb_08_1047,student_TT_local,2021.1.4,60.05154824905615,
,None,None,None,None,None,None,None,None,None,None,origin,falter,6.5,7.5,video&audio/potent_TT_3X.mp4,video&audio/sentence4_TT_3X.mp4,potent,tandem,None,,,,,,,,,,,0,12,12,15,,,,,,,,,,,,,,,,,,,,,,,,,,,,,,,,,,,,,,,,,,,,,,,,,,,,,,,,,None, origin,"['a', 'r', 'i', 'g', 'i', 'n', 'backspace', 'backspace', 'backspace', 'backspace', 'backspace', 'backspace', 'o', 'r', 'i', 'g', 'i', 'n', 'return']","[0.48569119999956456, 0.7813201999997545, 0.9576637999998638, 1.3730407000002742, 1.629707000000053, 1.9250601999992796, 2.717652499999531, 2.989175599999726, 3.1261961000000156, 3.3092352999992727, 3.5570846000009624, 3.8374356999993324, 4.381469899999502, 4.701733399999284, 4.8139470999994955, 5.021242099999654, 5.101099299999987, 5.229576600000655, 5.6695245999999315]",,,,,,,,,,,,,,,,,,,,,,,,,,,,,,,,,,,,24,001,C,2023_Feb_08_1047,student_TT_local,2021.1.4,60.05154824905615,
,None,None,None,None,None,None,None,None,None,None,nettle,plasma,6.5,7.5,video&audio/deduct_TT_3X.mp4,video&audio/sentence5_TT_3X.mp4,deduct,jailer,None,,,,,,,,,,,0,13,13,16,,,,,,,,,,,,,,,,,,,,,,,,,,,,,,,,,,,,,,,,,,,,,,,,,,,,,,,,,None, nettle,"['n', 'e', 't', 't', 'l', 'e', 'return']","[0.8453843999996025, 1.053050799999255, 1.3089995000009367, 1.476812400000199, 1.5727994000008039, 1.693733500000235, 2.2608206999993854]",,,,,,,,,,,,,,,,,,,,,,,,,,,,,,,,,,,,24,001,C,2023_Feb_08_1047,student_TT_local,2021.1.4,60.05154824905615,
,None,None,None,None,None,None,None,None,None,None,ethnic,botany,6.5,7.5,video&audio/fodder_TT_3X.mp4,video&audio/sentence4_TT_3X.mp4,fodder,trench,None,,,,,,,,,,,0,14,14,27,,,,,,,,,,,,,,,,,,,,,,,,,,,,,,,,,,,,,,,,,,,,,,,,,,,,,,,,,None, ethnic,"['e', 't', 'h', 'n', 'i', 'c', 'return']","[0.6168228000005911, 0.912368699999206, 1.3133321000004798, 1.7126824000006309, 1.8005271999991237, 2.1604217999993125, 2.4646584000001894]",,,,,,,,,,,,,,,,,,,,,,,,,,,,,,,,,,,,24,001,C,2023_Feb_08_1047,student_TT_local,2021.1.4,60.05154824905615,
,None,None,None,None,None,None,None,None,None,None,tamper,confer,19.5,20.5,video&audio/critic_touch_edited.mp4,video&audio/Sentence1_touch_edited.mp4,critic,innate,None,,,,,,,,,,,0,15,15,12,,,,,,,,,,,,,,,,,,,,,,,,,,,,,,,,,,,,,,,,,,,,,,,,,,,,,,,,,None, tamper,"['t', 'a', 'm', 'p', 'e', 'r', 'return']","[1.0035528000007616, 1.212101499999335, 1.452114600000641, 1.8995075000002544, 2.1478569000009884, 2.2686155999999755, 2.611273500000607]",,,,,,,,,,,,,,,,,,,,,,,,,,,,,,,,,,,,24,001,C,2023_Feb_08_1047,student_TT_local,2021.1.4,60.05154824905615,
,"Remember to type as QUICKLY and ACCURATELY as possible after the 'get ready' prompt.

Ask the experimenter any questions now. Please put on the headphones.

You will get one practice trial. Press 'enter/return' when you are ready to start the practice.","Remember to type as QUICKLY and ACCURATELY as you can after the 'get ready' prompt.

Ask the experimenter any questions now. Please put on the headphones.

You will get one practice trial. Press 'enter/return' when you are ready to start the practice.",video&audio/Example_AOMI_total.png,1.8,0.7,None,None,None,None,None,ghetto,frugal,19.5,20.5,video&audio/jargon_touch_edited.mp4,video&audio/Sentence3_touch_edited.mp4,jargon,oppose,None,,,,,,,,,,,0,16,16,2,,,,,,,,,,,,,,,,,,,,,,,,,,,,,,,,,,,,,,,,,,,,,,,,,,,,,,,,,['g'], ghetto,"['g', 'h', 'e', 't', 't', 'o', 'return']","[0.6196500999994896, 0.9325009999993199, 1.1559499999984837, 1.675473499999498, 1.8514691999989736, 2.091494899999816, 2.747303099999044]",[2.764161299999614],,,,,,,,,,,,,,,,,,,,,,,,,,,,,,,,,,,24,001,C,2023_Feb_08_1047,student_TT_local,2021.1.4,60.05154824905615,
,None,None,None,None,None,None,None,None,None,None,ordain,neural,19.5,20.5,video&audio/quarry_touch_edited.mp4,video&audio/Sentence2_touch_edited.mp4,quarry,septic,None,,,,,,,,,,,0,17,17,13,,,,,,,,,,,,,,,,,,,,,,,,,,,,,,,,,,,,,,,,,,,,,,,,,,,,,,,,,['o'], ordain,"['o', 'r', 'd', 'a', 'i', 'n', 'return']","[0.6942990999996255, 1.046081200000117, 1.45412639999995, 1.6701321999989887, 1.862218700000085, 1.9984203999993042, 2.72616890000063]",[2.9428588999999192],,,,,,,,,,,,,,,,,,,,,,,,,,,,,,,,,,,24,001,C,2023_Feb_08_1047,student_TT_local,2021.1.4,60.05154824905615,
,None,None,None,None,None,None,None,None,None,None,uphold,debtor,6.5,7.5,video&audio/convoy_TT_3X.mp4,video&audio/sentence1_TT_3X.mp4,convoy,output,None,,,,,,,,,,,0,18,18,18,,,,,,,,,,,,,,,,,,,,,,,,,,,,,,,,,,,,,,,,,,,,,,,,,,,,,,,,,None, uphold,"['u', 'p', 'h', 'o', 'l', 'd', 'return']","[0.9221457000003284, 1.0426171999988583, 1.434382800000094, 1.6018648999997822, 1.9141875000004802, 2.146119799999724, 2.8660927999990236]",,,,,,,,,,,,,,,,,,,,,,,,,,,,,,,,,,,,24,001,C,2023_Feb_08_1047,student_TT_local,2021.1.4,60.05154824905615,
,None,None,None,None,None,None,None,None,None,None,ration,solemn,19.5,20.5,video&audio/goblet_touch_edited.mp4,video&audio/Sentence3_touch_edited.mp4,goblet,befall,None,,,,,,,,,,,0,19,19,8,,,,,,,,,,,,,,,,,,,,,,,,,,,,,,,,,,,,,,,,,,,,,,,,,,,,,,,,,None, ration,"['r', 'a', 't', 'i', 'o', 'n', 'return']","[0.7953661999999895, 1.0265906999993604, 1.2269388000004255, 1.3077768999992259, 1.3788022999997338, 1.570577599999524, 2.1067958999992697]",,,,,,,,,,,,,,,,,,,,,,,,,,,,,,,,,,,,24,001,C,2023_Feb_08_1047,student_TT_local,2021.1.4,60.05154824905615,
,None,None,None,None,None,None,None,None,None,None,mussel,cortex,6.5,7.5,video&audio/savant_TT_3X.mp4,video&audio/sentence4_TT_3X.mp4,savant,induce,None,,,,,,,,,,,0,20,20,21,,,,,,,,,,,,,,,,,,,,,,,,,,,,,,,,,,,,,,,,,,,,,,,,,,,,,,,,,None, mussel,"['m', 'u', 's', 's', 'e', 'l', 'return']","[0.6460350000015751, 0.966144300000451, 1.1901388000005682, 1.3899076000016066, 1.6939115000004676, 2.005836400001499, 2.4778708000012557]",,,,,,,,,,,,,,,,,,,,,,,,,,,,,,,,,,,,24,001,C,2023_Feb_08_1047,student_TT_local,2021.1.4,60.05154824905615,
,None,None,None,None,None,None,None,None,None,None,matron,subdue,6.5,7.5,video&audio/impose_TT_3X.mp4,video&audio/sentence3_TT_3X.mp4,impose,feudal,None,,,,,,,,,,,0,21,21,26,,,,,,,,,,,,,,,,,,,,,,,,,,,,,,,,,,,,,,,,,,,,,,,,,,,,,,,,,None, matron,"['m', 'a', 't', 'r', 'o', 'n', 'return']","[0.6667133000009926, 0.867511000000377, 1.1306925999997475, 1.370540500000061, 1.730448800000886, 1.7955550000006042, 2.450985200001014]",,,,,,,,,,,,,,,,,,,,,,,,,,,,,,,,,,,,24,001,C,2023_Feb_08_1047,student_TT_local,2021.1.4,60.05154824905615,
,None,None,None,None,None,None,None,None,None,None,defame,covert,19.5,20.5,video&audio/binder_touch_edited.mp4,video&audio/Sentence6_touch_edited.mp4,binder,patent,None,,,,,,,,,,,0,22,22,11,,,,,,,,,,,,,,,,,,,,,,,,,,,,,,,,,,,,,,,,,,,,,,,,,,,,,,,,,None, defame,"['d', 'e', 'f', 'a', 'm', 'e', 'return']","[0.4988532999996096, 0.7065540000003239, 1.0995839000006526, 1.2746110999996745, 1.4744117999998707, 1.634598200000255, 2.11512810000022]",,,,,,,,,,,,,,,,,,,,,,,,,,,,,,,,,,,,24,001,C,2023_Feb_08_1047,student_TT_local,2021.1.4,60.05154824905615,
,None,None,None,None,None,None,None,None,None,None,mucous,subtle,6.5,7.5,video&audio/brazen_TT_3X.mp4,video&audio/sentence5_TT_3X.mp4,brazen,fungal,None,,,,,,,,,,,0,23,23,22,,,,,,,,,,,,,,,,,,,,,,,,,,,,,,,,,,,,,,,,,,,,,,,,,,,,,,,,,None, mucous,"['m', 'u', 'c', 'o', 'u', 's', 'return']","[0.9327651000003243, 1.3485813999996026, 1.9564097999991645, 2.460611099999369, 2.580572699998811, 2.9723582999995415, 4.013162100000045]",,,,,,,,,,,,,,,,,,,,,,,,,,,,,,,,,,,,24,001,C,2023_Feb_08_1047,student_TT_local,2021.1.4,60.05154824905615,
,None,None,None,None,None,None,None,None,None,None,portal,ritual,6.5,7.5,video&audio/coerce_TT_3X.mp4,video&audio/sentence6_TT_3X.mp4,coerce,clergy,None,,,,,,,,,,,0,24,24,17,,,,,,,,,,,,,,,,,,,,,,,,,,,,,,,,,,,,,,,,,,,,,,,,,,,,,,,,,None, portal,"['p', 'o', 'r', 't', 'a', 'l', 'return']","[0.6297890999994706, 0.9094669999994949, 1.3336108999992575, 1.5737057999995159, 1.7980086999996274, 2.03008249999948, 2.381693200000882]",,,,,,,,,,,,,,,,,,,,,,,,,,,,,,,,,,,,24,001,C,2023_Feb_08_1047,student_TT_local,2021.1.4,60.05154824905615,
,None,None,None,None,None,None,None,None,None,None,galley,tariff,19.5,20.5,video&audio/strife_touch_edited.mp4,video&audio/Sentence2_touch_edited.mp4,strife,delude,None,,,,,,,,,,,0,25,25,7,,,,,,,,,,,,,,,,,,,,,,,,,,,,,,,,,,,,,,,,,,,,,,,,,,,,,,,,,None, galley,"['g', 'a', 'l', 'l', 'e', 'y', 'return']","[0.8372945999999502, 1.422003900001073, 1.7571514999999636, 1.9731442000011157, 2.933822400000281, 3.605433800001265, 3.9333862000003137]",,,,,,,,,,,,,,,,,,,,,,,,,,,,,,,,,,,,24,001,C,2023_Feb_08_1047,student_TT_local,2021.1.4,60.05154824905615,
,None,None,None,None,None,None,None,None,None,None,fusion,obsess,19.5,20.5,video&audio/sherry_touch_edited.mp4,video&audio/Sentence5_touch_edited.mp4,sherry,zephyr,None,,,,,,,,,,,0,26,26,10,,,,,,,,,,,,,,,,,,,,,,,,,,,,,,,,,,,,,,,,,,,,,,,,,,,,,,,,,None, fusion,"['f', 'u', 's', 'i', 'o', 'n', 'return']","[0.7474167999989731, 0.8996205000003101, 1.092086399999971, 1.227894199999355, 1.3312640999993164, 1.483444600000439, 1.875966100000369]",,,,,,,,,,,,,,,,,,,,,,,,,,,,,,,,,,,,24,001,C,2023_Feb_08_1047,student_TT_local,2021.1.4,60.05154824905615,
,"This is Section 2.

In this section, your task will be the same as before - that is, to type the word you see on the screen after the typing prompt. However, rather than just seeing the word before typing, you will also see a video of someone typing the same word you will need to type at various speeds. 

Press 'enter/return' to go to the next page.","This is Section 4. 

In this section, your task will be the same as before - that is, to type the word you see on the screen after the typing prompt. You will see a video again, like in Section 2, only this time, the video will show someone typing different words to what you must type at various speeds. 

Press 'enter/return' to go to the next page.",video&audio/Example_AOMI_layout.png,1.6,0.6,afford,19.5,20.5,video&audio/afford_touch_edited.mp4,video&audio/amount_touch_edited.mp4,breach,matrix,19.5,20.5,video&audio/vanity_touch_edited.mp4,video&audio/Sentence1_touch_edited.mp4,vanity,hinder,1 = AOMIspec,,,,,,,,,,,0,27,27,0,,,,,,,,,,,,,,,,,,,,,,,,,,,,,,,,,,,,,,,,,,,,,,,,,,,,,,,,,None, breach,"['b', 'r', 'e', 'a', 'c', 'h', 'return']","[0.7350994999997056, 1.047280699998737, 1.1670579000001453, 1.4955167999996775, 1.736306799999511, 1.8714837999996234, 2.4872610999991593]",,,,,,,,,,,,,,,,,,,,,,,,,,,,,,,,,,,,24,001,C,2023_Feb_08_1047,student_TT_local,2021.1.4,60.05154824905615,
,None,None,None,None,None,None,None,None,None,None,herbal,hippie,19.5,20.5,video&audio/sonnet_touch_edited.mp4,video&audio/Sentence3_touch_edited.mp4,sonnet,hearth,None,,,,,,,,,,,0,28,28,14,,,,,,,,,,,,,,,,,,,,,,,,,,,,,,,,,,,,,,,,,,,,,,,,,,,,,,,,,None, herbal,"['h', 'e', 'r', 'b', 'a', 'l', 'return']","[0.76142179999988, 0.9529989000002388, 1.0490577000000485, 1.2813609000004362, 1.5536888000006002, 1.810311700000966, 2.5614088000002084]",,,,,,,,,,,,,,,,,,,,,,,,,,,,,,,,,,,,24,001,C,2023_Feb_08_1047,student_TT_local,2021.1.4,60.05154824905615,
,None,None,None,None,None,None,None,None,None,None,divert,kipper,6.5,7.5,video&audio/musket_TT_3X.mp4,video&audio/sentence2_TT_3X.mp4,musket,meddle,None,,,,,,,,,,,0,29,29,25,,,,,,,,,,,,,,,,,,,,,,,,,,,,,,,,,,,,,,,,,,,,,,,,,,,,,,,,,None, divert,"['d', 'i', 'v', 'e', 'r', 't', 'return']","[0.7980267000002641, 0.9259849000009126, 1.1096042999997735, 1.341581500000757, 1.469180600000982, 1.7100448000001052, 2.221179399999528]",,,,,,,,,,,,,,,,,,,,,,,,,,,,,,,,,,,,24,001,C,2023_Feb_08_1047,student_TT_local,2021.1.4,60.05154824905615,
,,,,,,,,,,,,,,,,,,,,typingRatingScale.png,"How would you rate your typing performance in the previous section?

Press a number on your keyboard according to the rating scale below to give your answer. Your first answer will be accepted.",,,,,,,,,,,,,0,0,0,0,,,,,,,,,,,,,,,,,,,,,,,,,,,,,,,,,,,,,,,,,,,,,,,,,,,,,,,,,,['4'],[17.282951999999568],,,,,,,,,,,,,,,,,,,,,,,,,,,,,,,,,24,001,C,2023_Feb_08_1047,student_TT_local,2021.1.4,60.05154824905615,
,,,,,,,,,,,,,,,,,,,,imageryCheckScale.png,"In the previous section did you imagine yourself typing?

Press a number on your keyboard according to the rating scale below to give your answer. Your first answer will be accepted.",,,,,,,,,,,,,0,1,1,1,,,,,,,,,,,,,,,,,,,,,,,,,,,,,,,,,,,,,,,,,,,,,,,,,,,,,,,,,,['5'],[12.117627999999968],,,,,,,,,,,,,,,,,,,,,,,,,,,,,,,,,24,001,C,2023_Feb_08_1047,student_TT_local,2021.1.4,60.05154824905615,
,None,None,None,None,None,None,None,None,None,None,shroud,jackal,19.5,20.5,video&audio/parole_touch_edited.mp4,video&audio/Sentence4_touch_edited.mp4,parole,hamlet,None,,,,,,,,,,,,,,,,,,,,,,,,,,,0,0,0,9,,,,,,,,,,,,,,,,,,,,,,,,,,,,,,,,,,,,,,,,,,,,,,,,None,None,"['b', 'u', 't', 't', 'e', 'r', 'return']","[1.177028899999641, 1.4570791000005556, 1.7452878999993118, 1.896901699999944, 2.0733424999998533, 2.2330282000002626, 2.745864900000015]",None, parole,"['p', 'a', 'r', 'o', 'l', 'e']","[0.8409166000001278, 1.217258500000753, 1.5367138999990857, 1.9289446999991924, 2.3131033000008756, 2.6569947000007232]",,,,,,,,,,,,,,,,,,,,,,,,,24,001,C,2023_Feb_08_1047,student_TT_local,2021.1.4,60.05154824905615,
,None,None,None,None,None,None,None,None,None,None,allure,forage,6.5,7.5,video&audio/legion_TT_3X.mp4,video&audio/sentence6_TT_3X.mp4,legion,campus,None,,,,,,,,,,,,,,,,,,,,,,,,,,,0,1,1,29,,,,,,,,,,,,,,,,,,,,,,,,,,,,,,,,,,,,,,,,,,,,,,,,,None,,,None, legion,"['l', 'e', 'g', 'i', 'o', 'n', 'return']","[0.8019598999999289, 1.122033300000112, 1.4264545000005455, 1.5222104999993462, 1.6426618000004964, 1.7859602000007726, 2.3702795000008337]",,,,,,,,,,,,,,,,,,,,,,,,,24,001,C,2023_Feb_08_1047,student_TT_local,2021.1.4,60.05154824905615,
,None,None,None,None,None,None,None,None,None,None,uphold,debtor,6.5,7.5,video&audio/convoy_TT_3X.mp4,video&audio/sentence1_TT_3X.mp4,convoy,output,None,,,,,,,,,,,,,,,,,,,,,,,,,,,0,2,2,18,,,,,,,,,,,,,,,,,,,,,,,,,,,,,,,,,,,,,,,,,,,,,,,,,None,,,None, convoy,"['c', 'o', 'n', 'v', 'o', 'y', 'return']","[1.08678879999934, 1.3752370000001974, 1.630941499999608, 2.071182100000442, 2.342798899999252, 2.6075963000002957, 3.063169900000503]",,,,,,,,,,,,,,,,,,,,,,,,,24,001,C,2023_Feb_08_1047,student_TT_local,2021.1.4,60.05154824905615,
,None,None,None,None,None,None,None,None,None,None,herbal,hippie,19.5,20.5,video&audio/sonnet_touch_edited.mp4,video&audio/Sentence3_touch_edited.mp4,sonnet,hearth,None,,,,,,,,,,,,,,,,,,,,,,,,,,,0,3,3,14,,,,,,,,,,,,,,,,,,,,,,,,,,,,,,,,,,,,,,,,,,,,,,,,,None,,,None, sonnet,"['s', 'o', 'n', 'n', 'e', 't', 'return']","[1.360704100001385, 1.7047471000005316, 2.000682699999743, 2.2011206000006496, 2.416968600000473, 2.848573299999771, 3.2412911000010354]",,,,,,,,,,,,,,,,,,,,,,,,,24,001,C,2023_Feb_08_1047,student_TT_local,2021.1.4,60.05154824905615,
,None,None,None,None,None,None,None,None,None,None,tamper,confer,19.5,20.5,video&audio/critic_touch_edited.mp4,video&audio/Sentence1_touch_edited.mp4,critic,innate,None,,,,,,,,,,,,,,,,,,,,,,,,,,,0,4,4,12,,,,,,,,,,,,,,,,,,,,,,,,,,,,,,,,,,,,,,,,,,,,,,,,,None,,,None, critic,"['c', 'r', 'i', 't', 'i', 'c', 'return']","[1.1876777999987098, 1.6354319000001851, 1.899614099998871, 2.107530199999019, 2.2679154999987077, 2.7879013999991002, 3.0360063999996783]",,,,,,,,,,,,,,,,,,,,,,,,,24,001,C,2023_Feb_08_1047,student_TT_local,2021.1.4,60.05154824905615,
,None,None,None,None,None,None,None,None,None,None,mucous,subtle,6.5,7.5,video&audio/brazen_TT_3X.mp4,video&audio/sentence5_TT_3X.mp4,brazen,fungal,None,,,,,,,,,,,,,,,,,,,,,,,,,,,0,5,5,22,,,,,,,,,,,,,,,,,,,,,,,,,,,,,,,,,,,,,,,,,,,,,,,,,None,,,None, brazen,"['b', 'r', 'a', 'z', 'e', 'n', 'return']","[0.8072522000002209, 1.0231081000001723, 1.0797408999987965, 1.8558735999995406, 2.0643574000005174, 2.2077059999992343, 2.6476223999998183]",,,,,,,,,,,,,,,,,,,,,,,,,24,001,C,2023_Feb_08_1047,student_TT_local,2021.1.4,60.05154824905615,
,None,None,None,None,None,None,None,None,None,None,revoke,malady,19.5,20.5,video&audio/mirage_touch_edited.mp4,video&audio/Sentence1_touch_edited.mp4,mirage,shrewd,None,,,,,,,,,,,,,,,,,,,,,,,,,,,0,6,6,6,,,,,,,,,,,,,,,,,,,,,,,,,,,,,,,,,,,,,,,,,,,,,,,,,None,,,None, mirage,"['m', 'i', 'r', 'a', 'g', 'e', 'return']","[0.9335496000003332, 1.2464786999989883, 1.4947343999992881, 1.757558199999039, 2.046359299998585, 2.3258172999994713, 2.662155199999688]",,,,,,,,,,,,,,,,,,,,,,,,,24,001,C,2023_Feb_08_1047,student_TT_local,2021.1.4,60.05154824905615,
,None,None,None,None,None,None,None,None,None,None,warble,devise,6.5,7.5,video&audio/satire_TT_3X.mp4,video&audio/sentence1_TT_3X.mp4,satire,mangle,None,,,,,,,,,,,,,,,,,,,,,,,,,,,0,7,7,24,,,,,,,,,,,,,,,,,,,,,,,,,,,,,,,,,,,,,,,,,,,,,,,,,None,,,None, satire,"['s', 'a', 't', 'i', 'r', 'e', 'return']","[0.9601448999983404, 1.3284642999988137, 1.664475899999161, 1.8314388999988296, 2.1116601999983686, 2.4642855999991298, 2.88790649999828]",,,,,,,,,,,,,,,,,,,,,,,,,24,001,C,2023_Feb_08_1047,student_TT_local,2021.1.4,60.05154824905615,
,None,None,None,None,None,None,None,None,None,None,ordain,neural,19.5,20.5,video&audio/quarry_touch_edited.mp4,video&audio/Sentence2_touch_edited.mp4,quarry,septic,None,,,,,,,,,,,,,,,,,,,,,,,,,,,0,8,8,13,,,,,,,,,,,,,,,,,,,,,,,,,,,,,,,,,,,,,,,,,,,,,,,,,None,,,None, quarry,"['q', 'u', 'a', 'r', 'r', 'y', 'return']","[0.9838309999995545, 1.191665499998635, 1.391803099999379, 1.655317799999466, 1.8399542999995901, 2.02376809999987, 2.5993848999987677]",,,,,,,,,,,,,,,,,,,,,,,,,24,001,C,2023_Feb_08_1047,student_TT_local,2021.1.4,60.05154824905615,
,None,None,None,None,None,None,None,None,None,None,origin,falter,6.5,7.5,video&audio/potent_TT_3X.mp4,video&audio/sentence4_TT_3X.mp4,potent,tandem,None,,,,,,,,,,,,,,,,,,,,,,,,,,,0,9,9,15,,,,,,,,,,,,,,,,,,,,,,,,,,,,,,,,,,,,,,,,,,,,,,,,,None,,,None, potent,"['p', 'o', 't', 'e', 'n', 't', 'return']","[0.9310745000002498, 1.2908447999998316, 1.602742600000056, 1.7385644999994838, 1.883145699999659, 2.1072081999991497, 2.427504900000713]",,,,,,,,,,,,,,,,,,,,,,,,,24,001,C,2023_Feb_08_1047,student_TT_local,2021.1.4,60.05154824905615,
,None,None,None,None,None,None,None,None,None,None,matron,subdue,6.5,7.5,video&audio/impose_TT_3X.mp4,video&audio/sentence3_TT_3X.mp4,impose,feudal,None,,,,,,,,,,,,,,,,,,,,,,,,,,,0,10,10,26,,,,,,,,,,,,,,,,,,,,,,,,,,,,,,,,,,,,,,,,,,,,,,,,,None,,,None, impose,"['i', 'm', 'p', 'o', 's', 'e', 'return']","[0.7248177000001306, 1.036687499999971, 1.4845434999988356, 1.676545599999372, 1.8445216999989498, 2.0211313999989216, 2.5806487999998353]",,,,,,,,,,,,,,,,,,,,,,,,,24,001,C,2023_Feb_08_1047,student_TT_local,2021.1.4,60.05154824905615,
,None,None,None,None,None,None,None,None,None,None,export,cervix,6.5,7.5,video&audio/murmur_TT_3X.mp4,video&audio/sentence2_TT_3X.mp4,murmur,cobble,None,,,,,,,,,,,,,,,,,,,,,,,,,,,0,11,11,19,,,,,,,,,,,,,,,,,,,,,,,,,,,,,,,,,,,,,,,,,,,,,,,,,None,,,None, murmur,"['m', 'u', 'r', 'm', 'u', 'r', 'return']","[0.6895284000001993, 0.9939217999999528, 1.202168800000436, 1.4095465000009426, 1.6733520000016142, 1.801707800001168, 2.290263800001412]",,,,,,,,,,,,,,,,,,,,,,,,,24,001,C,2023_Feb_08_1047,student_TT_local,2021.1.4,60.05154824905615,
,None,None,None,None,None,None,None,None,None,None,shrill,piston,6.5,7.5,video&audio/pursue_TT_3X.mp4,video&audio/sentence3_TT_3X.mp4,pursue,caviar,None,,,,,,,,,,,,,,,,,,,,,,,,,,,0,12,12,20,,,,,,,,,,,,,,,,,,,,,,,,,,,,,,,,,,,,,,,,,,,,,,,,,None,,,None, pursue,"['p', 'u', 'r', 's', 'u', 'e', 'return']","[1.1979649000004429, 1.4061466000002838, 1.654916299999968, 1.9902738000000681, 2.230075499999657, 2.4785929000008764, 2.942377299999862]",,,,,,,,,,,,,,,,,,,,,,,,,24,001,C,2023_Feb_08_1047,student_TT_local,2021.1.4,60.05154824905615,
,None,None,None,None,None,None,None,None,None,None,apathy,virile,19.5,20.5,video&audio/revolt_touch_edited.mp4,video&audio/Sentence6_touch_edited.mp4,revolt,joiner,None,,,,,,,,,,,,,,,,,,,,,,,,,,,0,13,13,5,,,,,,,,,,,,,,,,,,,,,,,,,,,,,,,,,,,,,,,,,,,,,,,,,None,,,None, revolt,"['r', 'e', 'v', 'o', 'l', 't', 'return']","[0.7191767000003892, 0.8554245000013907, 1.1912648000015906, 1.3991918000010628, 1.6717934000007517, 2.1913573000001634, 2.719420600000376]",,,,,,,,,,,,,,,,,,,,,,,,,24,001,C,2023_Feb_08_1047,student_TT_local,2021.1.4,60.05154824905615,
,None,None,None,None,None,None,None,None,None,None,divert,kipper,6.5,7.5,video&audio/musket_TT_3X.mp4,video&audio/sentence2_TT_3X.mp4,musket,meddle,None,,,,,,,,,,,,,,,,,,,,,,,,,,,0,14,14,25,,,,,,,,,,,,,,,,,,,,,,,,,,,,,,,,,,,,,,,,,,,,,,,,,None,,,None, musket,"['m', 'u', 's', 'k', 'e', 't', 'return']","[0.7703146999992896, 1.0423598999987007, 1.2022259999994276, 1.3705160999998043, 1.5465788999990764, 1.6982307999987825, 2.1386130999999295]",,,,,,,,,,,,,,,,,,,,,,,,,24,001,C,2023_Feb_08_1047,student_TT_local,2021.1.4,60.05154824905615,
,None,None,None,None,None,None,None,None,None,None,fusion,obsess,19.5,20.5,video&audio/sherry_touch_edited.mp4,video&audio/Sentence5_touch_edited.mp4,sherry,zephyr,None,,,,,,,,,,,,,,,,,,,,,,,,,,,0,15,15,10,,,,,,,,,,,,,,,,,,,,,,,,,,,,,,,,,,,,,,,,,,,,,,,,,None,,,None, sherry,"['s', 'h', 'e', 'r', 'r', 'y', 'return']","[0.8027181000015844, 1.0911893000011332, 1.3470863000002282, 1.6829348000010214, 1.8992176000010659, 2.210959300000468, 2.682996600000479]",,,,,,,,,,,,,,,,,,,,,,,,,24,001,C,2023_Feb_08_1047,student_TT_local,2021.1.4,60.05154824905615,
,None,None,None,None,None,None,None,None,None,None,linear,belfry,6.5,7.5,video&audio/manure_TT_3X.mp4,video&audio/sentence6_TT_3X.mp4,manure,girdle,None,,,,,,,,,,,,,,,,,,,,,,,,,,,0,16,16,23,,,,,,,,,,,,,,,,,,,,,,,,,,,,,,,,,,,,,,,,,,,,,,,,,None,,,None, manure,"['m', 'a', 'n', 'u', 'r', 'e', 'return']","[1.6072191999992356, 1.862629699999161, 2.0626999999985856, 2.3348306999996566, 2.462546499999007, 2.5512992999993003, 2.9510414999986097]",,,,,,,,,,,,,,,,,,,,,,,,,24,001,C,2023_Feb_08_1047,student_TT_local,2021.1.4,60.05154824905615,
,None,None,None,None,None,None,None,None,None,None,nettle,plasma,6.5,7.5,video&audio/deduct_TT_3X.mp4,video&audio/sentence5_TT_3X.mp4,deduct,jailer,None,,,,,,,,,,,,,,,,,,,,,,,,,,,0,17,17,16,,,,,,,,,,,,,,,,,,,,,,,,,,,,,,,,,,,,,,,,,,,,,,,,,None,,,None, deduct,"['d', 'e', 'd', 'u', 'c', 't', 'return']","[0.5982602000003681, 0.8061926000009407, 1.1821300999999949, 1.4062991000009788, 1.5903229000014107, 1.9831555000000662, 2.1992277999997896]",,,,,,,,,,,,,,,,,,,,,,,,,24,001,C,2023_Feb_08_1047,student_TT_local,2021.1.4,60.05154824905615,
,None,None,None,None,None,None,None,None,None,None,mystic,pulpit,19.5,20.5,video&audio/infirm_touch_edited.mp4,video&audio/Sentence4_touch_edited.mp4,infirm,oblige,None,,,,,,,,,,,,,,,,,,,,,,,,,,,0,18,18,3,,,,,,,,,,,,,,,,,,,,,,,,,,,,,,,,,,,,,,,,,,,,,,,,,None,,,None, infirm,"['i', 'n', 'f', 'r', 'i', 'm', 'backspace', 'backspace', 'backspace', 'i', 'r', 'm', 'return']","[0.8935640999989118, 1.2299753999996028, 1.438632299999881, 1.8298178000004555, 1.9894752999989578, 2.0783761000002414, 2.8214088000004267, 3.005359299999327, 3.142635299998801, 3.9493853000003583, 4.093603699999221, 4.197526199999629, 4.509601300000213]",,,,,,,,,,,,,,,,,,,,,,,,,24,001,C,2023_Feb_08_1047,student_TT_local,2021.1.4,60.05154824905615,
,None,None,None,None,None,None,None,None,None,None,gullet,picket,6.5,7.5,video&audio/upkeep_TT_3X.mp4,video&audio/sentence5_TT_3X.mp4,upkeep,parish,None,,,,,,,,,,,,,,,,,,,,,,,,,,,0,19,19,28,,,,,,,,,,,,,,,,,,,,,,,,,,,,,,,,,,,,,,,,,,,,,,,,,None,,,None, upkeep,"['u', 'p', 'k', 'e', 'e', 'p', 'return']","[0.6025531000013871, 0.8825397000000521, 1.2744370000000345, 1.4587755000011384, 1.6592901000003621, 2.2182140000004438, 2.7706247000005533]",,,,,,,,,,,,,,,,,,,,,,,,,24,001,C,2023_Feb_08_1047,student_TT_local,2021.1.4,60.05154824905615,
,None,None,None,None,None,None,None,None,None,None,ethnic,botany,6.5,7.5,video&audio/fodder_TT_3X.mp4,video&audio/sentence4_TT_3X.mp4,fodder,trench,None,,,,,,,,,,,,,,,,,,,,,,,,,,,0,20,20,27,,,,,,,,,,,,,,,,,,,,,,,,,,,,,,,,,,,,,,,,,,,,,,,,,None,,,None, fodder,"['f', 'o', 'd', 'd', 'e', 'r', 'return']","[0.6941904999985127, 0.9584083999998256, 1.2859528999997565, 1.4703784999983327, 1.6942940999997518, 1.8307135999984894, 2.2142021999989083]",,,,,,,,,,,,,,,,,,,,,,,,,24,001,C,2023_Feb_08_1047,student_TT_local,2021.1.4,60.05154824905615,
,None,None,None,None,None,None,None,None,None,None,defame,covert,19.5,20.5,video&audio/binder_touch_edited.mp4,video&audio/Sentence6_touch_edited.mp4,binder,patent,None,,,,,,,,,,,,,,,,,,,,,,,,,,,0,21,21,11,,,,,,,,,,,,,,,,,,,,,,,,,,,,,,,,,,,,,,,,,,,,,,,,,None,,,None, binder,"['b', 'i', 'n', 'd', 'e', 'r', 'return']","[0.8784618000008777, 1.1585341000009066, 1.2942930000008346, 1.4945523000005778, 1.686296300000322, 1.8462811000008514, 2.071140899999591]",,,,,,,,,,,,,,,,,,,,,,,,,24,001,C,2023_Feb_08_1047,student_TT_local,2021.1.4,60.05154824905615,
,None,None,None,None,None,None,None,None,None,None,ration,solemn,19.5,20.5,video&audio/goblet_touch_edited.mp4,video&audio/Sentence3_touch_edited.mp4,goblet,befall,None,,,,,,,,,,,,,,,,,,,,,,,,,,,0,22,22,8,,,,,,,,,,,,,,,,,,,,,,,,,,,,,,,,,,,,,,,,,,,,,,,,,None,,,None, goblet,"['g', 'o', 'b', 'l', 'e', 't', 'return']","[1.144660300000396, 1.4086126000001968, 1.7127292000004672, 1.9924178999990545, 2.200545499999862, 2.3765882999996393, 2.7765598999994836]",,,,,,,,,,,,,,,,,,,,,,,,,24,001,C,2023_Feb_08_1047,student_TT_local,2021.1.4,60.05154824905615,
,None,None,None,None,None,None,None,None,None,None,galley,tariff,19.5,20.5,video&audio/strife_touch_edited.mp4,video&audio/Sentence2_touch_edited.mp4,strife,delude,None,,,,,,,,,,,,,,,,,,,,,,,,,,,0,23,23,7,,,,,,,,,,,,,,,,,,,,,,,,,,,,,,,,,,,,,,,,,,,,,,,,,['s'],,,None, strife,"['t', 'r', 'i', 'f', 'e', 'backspace', 'backspace', 'backspace', 'backspace', 'backspace', 's', 't', 'r', 'i', 'f', 'e', 'return']","[0.2670918999992864, 0.5388402999997197, 0.8427740000006452, 1.1307252999995399, 1.2587168000009115, 1.9714125000009517, 2.1232417999999598, 2.315062100000432, 2.5227104000005056, 2.698792400000457, 2.9715359000001627, 3.6430925999993633, 3.946735699999408, 4.122698900000614, 4.330717200000436, 4.434846000000107, 4.771182099999351]",[0.9130775000012363],,,,,,,,,,,,,,,,,,,,,,,,24,001,C,2023_Feb_08_1047,student_TT_local,2021.1.4,60.05154824905615,
,"This is Section 2.

In this section, your task will be the same as before - that is, to type the word you see on the screen after the typing prompt. However, rather than just seeing the word before typing, you will also see a video of someone typing the same word you will need to type at various speeds. 

Press 'enter/return' to go to the next page.","This is Section 4. 

In this section, your task will be the same as before - that is, to type the word you see on the screen after the typing prompt. You will see a video again, like in Section 2, only this time, the video will show someone typing different words to what you must type at various speeds. 

Press 'enter/return' to go to the next page.",video&audio/Example_AOMI_layout.png,1.6,0.6,afford,19.5,20.5,video&audio/afford_touch_edited.mp4,video&audio/amount_touch_edited.mp4,breach,matrix,19.5,20.5,video&audio/vanity_touch_edited.mp4,video&audio/Sentence1_touch_edited.mp4,vanity,hinder,1 = AOMIspec,,,,,,,,,,,,,,,,,,,,,,,,,,,0,24,24,0,,,,,,,,,,,,,,,,,,,,,,,,,,,,,,,,,,,,,,,,,,,,,,,,,None,,,None, vanity,"['v', 'a', 'n', 'i', 't', 'y', 'return']","[0.8671057999999903, 1.170249500000864, 1.426241300001493, 1.6670946000012918, 1.8904438000008668, 2.1784582000000228, 2.6582597000015085]",,,,,,,,,,,,,,,,,,,,,,,,,24,001,C,2023_Feb_08_1047,student_TT_local,2021.1.4,60.05154824905615,
,None,None,None,None,None,None,None,None,None,None,entail,parcel,19.5,20.5,video&audio/novice_touch_edited.mp4,video&audio/Sentence5_touch_edited.mp4,novice,primal,None,,,,,,,,,,,,,,,,,,,,,,,,,,,0,25,25,4,,,,,,,,,,,,,,,,,,,,,,,,,,,,,,,,,,,,,,,,,,,,,,,,,None,,,None, novice,"['n', 'o', 'v', 'i', 'c', 'e', 'return']","[0.7998931000001903, 1.087513399999807, 1.3600050000004558, 1.5993333000005805, 1.9759308000011515, 2.143610600000102, 2.6398512000014307]",,,,,,,,,,,,,,,,,,,,,,,,,24,001,C,2023_Feb_08_1047,student_TT_local,2021.1.4,60.05154824905615,
,None,None,None,None,None,None,None,None,None,None,portal,ritual,6.5,7.5,video&audio/coerce_TT_3X.mp4,video&audio/sentence6_TT_3X.mp4,coerce,clergy,None,,,,,,,,,,,,,,,,,,,,,,,,,,,0,26,26,17,,,,,,,,,,,,,,,,,,,,,,,,,,,,,,,,,,,,,,,,,,,,,,,,,None,,,None, coerce,"['c', 'o', 'e', 'r', 'c', 'e', 'return']","[1.074241999998776, 1.3227005999997345, 1.4900358999984746, 1.883098099999188, 2.2422221999986505, 2.379206300000078, 2.8186440999998013]",,,,,,,,,,,,,,,,,,,,,,,,,24,001,C,2023_Feb_08_1047,student_TT_local,2021.1.4,60.05154824905615,
,None,None,None,None,None,None,None,None,None,None,mussel,cortex,6.5,7.5,video&audio/savant_TT_3X.mp4,video&audio/sentence4_TT_3X.mp4,savant,induce,None,,,,,,,,,,,,,,,,,,,,,,,,,,,0,27,27,21,,,,,,,,,,,,,,,,,,,,,,,,,,,,,,,,,,,,,,,,,,,,,,,,,None,,,None, savant,"['s', 'a', 'v', 'a', 'n', 't', 'return']","[0.5903049999997165, 0.7585083999983908, 1.0700551999998424, 1.1500478999987536, 1.3265846999984205, 1.5267438999999285, 1.998498799999652]",,,,,,,,,,,,,,,,,,,,,,,,,24,001,C,2023_Feb_08_1047,student_TT_local,2021.1.4,60.05154824905615,
,"While you watch the video, imagine yourself typing the word on the screen, like how you did in the imagery practice. While you watch the video and imagine this, rest your hands on your keyboard but DO NOT type until AFTER you see the typing prompt.

Press 'enter/return' to go to the next page.","While watching the video, imagine yourself typing the word on the screen, like how you did in the imagery practice. While you watch the video and imagine this, rest your hands on your keyboard but DO NOT type until AFTER you see the typing prompt.

Press 'enter/return' to go to the next page.",video&audio/Example_AOMI_imagine.png,1.6,1,butter,6.5,7.5,video&audio/butter_TT_3X.mp4,video&audio/amount_TT_3X.mp4,eatery,ascend,19.5,20.5,video&audio/plight_touch_edited.mp4,video&audio/Sentence2_touch_edited.mp4,plight,metric,2 = AOMIgen,,,,,,,,,,,,,,,,,,,,,,,,,,,0,28,28,1,,,,,,,,,,,,,,,,,,,,,,,,,,,,,,,,,,,,,,,,,,,,,,,,,None,,,None, plight,"['p', 'l', 'i', 'g', 'h', 't', 'return']","[0.8630783000007796, 1.1595574999992095, 1.438997900000686, 1.6636008999994374, 1.7909816999999748, 2.055534600000101, 2.6393275000009453]",,,,,,,,,,,,,,,,,,,,,,,,,24,001,C,2023_Feb_08_1047,student_TT_local,2021.1.4,60.05154824905615,
,"Remember to type as QUICKLY and ACCURATELY as possible after the 'get ready' prompt.

Ask the experimenter any questions now. Please put on the headphones.

You will get one practice trial. Press 'enter/return' when you are ready to start the practice.","Remember to type as QUICKLY and ACCURATELY as you can after the 'get ready' prompt.

Ask the experimenter any questions now. Please put on the headphones.

You will get one practice trial. Press 'enter/return' when you are ready to start the practice.",video&audio/Example_AOMI_total.png,1.8,0.7,None,None,None,None,None,ghetto,frugal,19.5,20.5,video&audio/jargon_touch_edited.mp4,video&audio/Sentence3_touch_edited.mp4,jargon,oppose,None,,,,,,,,,,,,,,,,,,,,,,,,,,,0,29,29,2,,,,,,,,,,,,,,,,,,,,,,,,,,,,,,,,,,,,,,,,,,,,,,,,,None,,,None, jargon,"['j', 'a', 'r', 'g', 'o', 'n', 'return']","[0.8304164000001037, 1.0777539999999135, 1.286085699999603, 1.5742262999992818, 1.8218661999999313, 1.9820175999993808, 2.4381579000000784]",,,,,,,,,,,,,,,,,,,,,,,,,24,001,C,2023_Feb_08_1047,student_TT_local,2021.1.4,60.05154824905615,
,,,,,,,,,,,,,,,,,,,,typingRatingScale.png,"How would you rate your typing performance in the previous section?

Press a number on your keyboard according to the rating scale below to give your answer. Your first answer will be accepted.",,,,,,,,,,,,,,,,,,,,,,,,,,,,,0,0,0,0,,,,,,,,,,,,,,,,,,,,,,,,,,,,,,,,,,,,,,,,,,,,,,,,,,,,,['4'],[6.850925599999755],,,,,,,,,,,,,,,,,,,,,,24,001,C,2023_Feb_08_1047,student_TT_local,2021.1.4,60.05154824905615,
,,,,,,,,,,,,,,,,,,,,visualImageryScale.png,"While imagining yourself typing, how clear was your visual image?

Press a number on your keyboard according to the rating scale below to give your answer. Your first answer will be accepted.",,,,,,,,,,,,,,,,,,,,,,,,,,,,,0,1,1,1,,,,,,,,,,,,,,,,,,,,,,,,,,,,,,,,,,,,,,,,,,,,,,,,,,,,,['3'],[5.965274700000009],,,,,,,,,,,,,,,,,,,,,,24,001,C,2023_Feb_08_1047,student_TT_local,2021.1.4,60.05154824905615,
,,,,,,,,,,,,,,,,,,,,kinestheticImageryScale.png,"While imagining yourself typing, how intense were the sensations associated with the imagined movement?

Press a number on your keyboard according to the rating scale below to give your answer. Your first answer will be accepted.",,,,,,,,,,,,,,,,,,,,,,,,,,,,,0,2,2,2,,,,,,,,,,,,,,,,,,,,,,,,,,,,,,,,,,,,,,,,,,,,,,,,,,,,,['5'],[4.483225400001174],,,,,,,,,,,,,,,,,,,,,,24,001,C,2023_Feb_08_1047,student_TT_local,2021.1.4,60.05154824905615,
,None,None,None,None,None,None,None,None,None,None,export,cervix,6.5,7.5,video&audio/murmur_TT_3X.mp4,video&audio/sentence2_TT_3X.mp4,murmur,cobble,None,,,,,,,,,,,,,,,,,,,,,,,,,,,,,,,,,,,,,,,,,,,0,0,0,19,,,,,,,,,,,,,,,,,,,,,,,,,,,,,,,,,,,,,,,,,,,3321.513578,3328.0165374000007,None, butter,"['b', 'u', 't', 't', 'e', 'r', 'return']","[1.2557666000011523, 1.4076949000009336, 1.6161582000004273, 1.7838061000002199, 1.9448763000000326, 2.0797443999999814, 3.0800646000006964]",3371.7137316999997,3378.2154159,None, cervix,"['c', 'e', 'r', 'v', 'i', 'x', 'return']","[1.646426799999972, 1.9029049999990093, 2.038591299999098, 2.55071659999885, 2.727038499999253, 3.134711699998661, 3.4944649999997637]",,,,,,,,,,24,001,C,2023_Feb_08_1047,student_TT_local,2021.1.4,60.05154824905615,
,None,None,None,None,None,None,None,None,None,None,mucous,subtle,6.5,7.5,video&audio/brazen_TT_3X.mp4,video&audio/sentence5_TT_3X.mp4,brazen,fungal,None,,,,,,,,,,,,,,,,,,,,,,,,,,,,,,,,,,,,,,,,,,,0,1,1,22,,,,,,,,,,,,,,,,,,,,,,,,,,,,,,,,,,,,,,,,,,,,,,,,,3382.7452648,3389.2589549000004,None, subtle,"['s', 'u', 'b', 'l', 'e', 'backspace', 'backspace', 't', 'l', 'e', 'return']","[1.2061644999994314, 1.5101293999996415, 1.6707238999988476, 2.270635400000174, 2.6068286999998236, 3.4064225000001898, 3.614005100000213, 4.646107499998834, 5.069773499999428, 5.182663800000228, 5.590749999999389]",,,,,,,,,,24,001,C,2023_Feb_08_1047,student_TT_local,2021.1.4,60.05154824905615,
,None,None,None,None,None,None,None,None,None,None,fusion,obsess,19.5,20.5,video&audio/sherry_touch_edited.mp4,video&audio/Sentence5_touch_edited.mp4,sherry,zephyr,None,,,,,,,,,,,,,,,,,,,,,,,,,,,,,,,,,,,,,,,,,,,0,2,2,10,,,,,,,,,,,,,,,,,,,,,,,,,,,,,,,,,,,,,,,,,,,,,,,,,3395.8799884,3415.4032776000004,None, obsess,"['o', 'b', 's', 'e', 's', 's', 'return']","[2.2321900999995705, 2.4964409999993222, 2.8485041999992973, 3.240693599998849, 3.584397099999478, 3.800160599999799, 4.200976099999025]",,,,,,,,,,24,001,C,2023_Feb_08_1047,student_TT_local,2021.1.4,60.05154824905615,
,None,None,None,None,None,None,None,None,None,None,mussel,cortex,6.5,7.5,video&audio/savant_TT_3X.mp4,video&audio/sentence4_TT_3X.mp4,savant,induce,None,,,,,,,,,,,,,,,,,,,,,,,,,,,,,,,,,,,,,,,,,,,0,3,3,21,,,,,,,,,,,,,,,,,,,,,,,,,,,,,,,,,,,,,,,,,,,,,,,,,3420.6303344000007,3427.1452169999993,None, cortex,"['c', 'o', 'r', 't', 'e', 'x', 'return']","[1.1709841000010783, 1.3780801000011706, 1.5619198000003962, 1.7938258000012866, 1.8987711999998282, 2.362500400000499, 2.6582687999998598]",,,,,,,,,,24,001,C,2023_Feb_08_1047,student_TT_local,2021.1.4,60.05154824905615,
,None,None,None,None,None,None,None,None,None,None,galley,tariff,19.5,20.5,video&audio/strife_touch_edited.mp4,video&audio/Sentence2_touch_edited.mp4,strife,delude,None,,,,,,,,,,,,,,,,,,,,,,,,,,,,,,,,,,,,,,,,,,,0,4,4,7,,,,,,,,,,,,,,,,,,,,,,,,,,,,,,,,,,,,,,,,,,,,,,,,,3430.8372173999996,3450.3445947,None, tariff,"['t', 'a', 'r', 'i', 'f', 'f', 'return']","[1.5247172999988834, 2.1164372000002913, 2.484585500000321, 2.773461299999326, 3.1005409999997937, 3.2928560999989713, 3.604890999999043]",,,,,,,,,,24,001,C,2023_Feb_08_1047,student_TT_local,2021.1.4,60.05154824905615,
,None,None,None,None,None,None,None,None,None,None,defame,covert,19.5,20.5,video&audio/binder_touch_edited.mp4,video&audio/Sentence6_touch_edited.mp4,binder,patent,None,,,,,,,,,,,,,,,,,,,,,,,,,,,,,,,,,,,,,,,,,,,0,5,5,11,,,,,,,,,,,,,,,,,,,,,,,,,,,,,,,,,,,,,,,,,,,,,,,,,3454.9853292000007,3474.4926663999995,None, covert,"['c', 'o', 'v', 'e', 'r', 't', 'return']","[1.4801585999994131, 1.7761833999993542, 2.056333900000027, 2.416007699999682, 2.5360273999995115, 2.9605030000002444, 3.7527157999993506]",,,,,,,,,,24,001,C,2023_Feb_08_1047,student_TT_local,2021.1.4,60.05154824905615,
,None,None,None,None,None,None,None,None,None,None,matron,subdue,6.5,7.5,video&audio/impose_TT_3X.mp4,video&audio/sentence3_TT_3X.mp4,impose,feudal,None,,,,,,,,,,,,,,,,,,,,,,,,,,,,,,,,,,,,,,,,,,,0,6,6,26,,,,,,,,,,,,,,,,,,,,,,,,,,,,,,,,,,,,,,,,,,,,,,,,,3479.2812758,3485.787180699999,None, subdue,"['s', 'u', 'b', 'd', 'u', 'e', 'return']","[1.391278400000374, 1.7201875999999174, 2.0472126999993634, 2.463607300000149, 2.767453899999964, 2.9117504999994708, 3.2954093999996985]",,,,,,,,,,24,001,C,2023_Feb_08_1047,student_TT_local,2021.1.4,60.05154824905615,
,None,None,None,None,None,None,None,None,None,None,ration,solemn,19.5,20.5,video&audio/goblet_touch_edited.mp4,video&audio/Sentence3_touch_edited.mp4,goblet,befall,None,,,,,,,,,,,,,,,,,,,,,,,,,,,,,,,,,,,,,,,,,,,0,7,7,8,,,,,,,,,,,,,,,,,,,,,,,,,,,,,,,,,,,,,,,,,,,,,,,,,3490.1309839999994,3509.6390317000005,None, solemn,"['s', 'o', 'l', 'e', 'm', 'n', 'return']","[1.4553068000004714, 1.6074287999999797, 1.839323100000911, 1.9993021000009321, 2.1912361000013334, 2.3431458000013663, 2.967131100000188]",,,,,,,,,,24,001,C,2023_Feb_08_1047,student_TT_local,2021.1.4,60.05154824905615,
,None,None,None,None,None,None,None,None,None,None,uphold,debtor,6.5,7.5,video&audio/convoy_TT_3X.mp4,video&audio/sentence1_TT_3X.mp4,convoy,output,None,,,,,,,,,,,,,,,,,,,,,,,,,,,,,,,,,,,,,,,,,,,0,8,8,18,,,,,,,,,,,,,,,,,,,,,,,,,,,,,,,,,,,,,,,,,,,,,,,,,3513.6577560000005,3520.1641693,None, debtor,"['d', 'e', 'b', 't', 'o', 'r', 'return']","[1.1245280999992247, 1.4291780999992625, 1.981612399998994, 2.468888199999128, 2.73314930000015, 2.8606502000002365, 3.5015177999994194]",,,,,,,,,,24,001,C,2023_Feb_08_1047,student_TT_local,2021.1.4,60.05154824905615,
,None,None,None,None,None,None,None,None,None,None,warble,devise,6.5,7.5,video&audio/satire_TT_3X.mp4,video&audio/sentence1_TT_3X.mp4,satire,mangle,None,,,,,,,,,,,,,,,,,,,,,,,,,,,,,,,,,,,,,,,,,,,0,9,9,24,,,,,,,,,,,,,,,,,,,,,,,,,,,,,,,,,,,,,,,,,,,,,,,,,3524.6994627999993,3531.2081813999994,None, devise,"['d', 'e', 'v', 'i', 's', 'e', 'return']","[0.9151196000002528, 1.083861799999795, 1.6273810000002413, 1.891872099999091, 2.595248499999798, 2.8365637000006245, 3.1311482999990403]",,,,,,,,,,24,001,C,2023_Feb_08_1047,student_TT_local,2021.1.4,60.05154824905615,
,None,None,None,None,None,None,None,None,None,None,ethnic,botany,6.5,7.5,video&audio/fodder_TT_3X.mp4,video&audio/sentence4_TT_3X.mp4,fodder,trench,None,,,,,,,,,,,,,,,,,,,,,,,,,,,,,,,,,,,,,,,,,,,0,10,10,27,,,,,,,,,,,,,,,,,,,,,,,,,,,,,,,,,,,,,,,,,,,,,,,,,3570.196400499999,3576.7198783999993,None, botany,"['b', 'o', 't', 'a', 'n', 'y', 'return']","[1.5538577000006626, 1.866363099999944, 2.1942720000006375, 2.4580934000005072, 2.810254600000917, 3.113937400001305, 4.273960600001374]",,,,,,,,,,24,001,C,2023_Feb_08_1047,student_TT_local,2021.1.4,60.05154824905615,
,"Remember to type as QUICKLY and ACCURATELY as possible after the 'get ready' prompt.

Ask the experimenter any questions now. Please put on the headphones.

You will get one practice trial. Press 'enter/return' when you are ready to start the practice.","Remember to type as QUICKLY and ACCURATELY as you can after the 'get ready' prompt.

Ask the experimenter any questions now. Please put on the headphones.

You will get one practice trial. Press 'enter/return' when you are ready to start the practice.",video&audio/Example_AOMI_total.png,1.8,0.7,None,None,None,None,None,ghetto,frugal,19.5,20.5,video&audio/jargon_touch_edited.mp4,video&audio/Sentence3_touch_edited.mp4,jargon,oppose,None,,,,,,,,,,,,,,,,,,,,,,,,,,,,,,,,,,,,,,,,,,,0,11,11,2,,,,,,,,,,,,,,,,,,,,,,,,,,,,,,,,,,,,,,,,,,,,,,,,,3582.0265194000003,3601.5340362000006,None, frugal,"['f', 'r', 'u', 'g', 'a', 'l', 'return']","[1.2190024000010453, 1.8667820999999094, 1.9949434000009205, 2.227098000001206, 2.4842521999999008, 2.6270340000010037, 3.4429257000010693]",,,,,,,,,,24,001,C,2023_Feb_08_1047,student_TT_local,2021.1.4,60.05154824905615,
,None,None,None,None,None,None,None,None,None,None,divert,kipper,6.5,7.5,video&audio/musket_TT_3X.mp4,video&audio/sentence2_TT_3X.mp4,musket,meddle,None,,,,,,,,,,,,,,,,,,,,,,,,,,,,,,,,,,,,,,,,,,,0,12,12,25,,,,,,,,,,,,,,,,,,,,,,,,,,,,,,,,,,,,,,,,,,,,,,,,,3606.0268006999995,3612.5316444,None, kipper,"['k', 'i', 'p', 'p', 'e', 'r', 'return']","[1.0327429999997548, 1.3605683999994653, 1.9212957999989158, 2.096351499998491, 2.3286087999986194, 2.4805218000001332, 3.2484349999995175]",,,,,,,,,,24,001,C,2023_Feb_08_1047,student_TT_local,2021.1.4,60.05154824905615,
,None,None,None,None,None,None,None,None,None,None,origin,falter,6.5,7.5,video&audio/potent_TT_3X.mp4,video&audio/sentence4_TT_3X.mp4,potent,tandem,None,,,,,,,,,,,,,,,,,,,,,,,,,,,,,,,,,,,,,,,,,,,0,13,13,15,,,,,,,,,,,,,,,,,,,,,,,,,,,,,,,,,,,,,,,,,,,,,,,,,3616.839336700001,3623.3483622999993,None, falter,"['f', 'a', 'l', 't', 'e', 'r', 'return']","[1.013908699998865, 1.4703739999986283, 1.814089799998328, 2.1902364999987185, 2.4301961999990453, 2.5749331999995775, 3.262682799999311]",,,,,,,,,,24,001,C,2023_Feb_08_1047,student_TT_local,2021.1.4,60.05154824905615,
,None,None,None,None,None,None,None,None,None,None,shrill,piston,6.5,7.5,video&audio/pursue_TT_3X.mp4,video&audio/sentence3_TT_3X.mp4,pursue,caviar,None,,,,,,,,,,,,,,,,,,,,,,,,,,,,,,,,,,,,,,,,,,,0,14,14,20,,,,,,,,,,,,,,,,,,,,,,,,,,,,,,,,,,,,,,,,,,,,,,,,,3627.643503199999,3634.1491501,None, piston,"['p', 'i', 's', 't', 'o', 'n']","[0.9564101000014489, 1.3085274000004574, 1.756365300001562, 2.0443188000008377, 2.2692456000004313, 2.364796000001661]",,,,,,,,,,24,001,C,2023_Feb_08_1047,student_TT_local,2021.1.4,60.05154824905615,
,None,None,None,None,None,None,None,None,None,None,entail,parcel,19.5,20.5,video&audio/novice_touch_edited.mp4,video&audio/Sentence5_touch_edited.mp4,novice,primal,None,,,,,,,,,,,,,,,,,,,,,,,,,,,,,,,,,,,,,,,,,,,0,15,15,4,,,,,,,,,,,,,,,,,,,,,,,,,,,,,,,,,,,,,,,,,,,,,,,,,3638.4565703000007,3657.9744704000004,None, parcel,"['p', 'a', 'r', 'c', 'e', 'l', 'return']","[0.9465478999991319, 1.098819299999377, 1.2109913999993296, 1.6181405000006635, 1.9786354999996547, 2.186429199999111, 2.698381199999858]",,,,,,,,,,24,001,C,2023_Feb_08_1047,student_TT_local,2021.1.4,60.05154824905615,
,"While you watch the video, imagine yourself typing the word on the screen, like how you did in the imagery practice. While you watch the video and imagine this, rest your hands on your keyboard but DO NOT type until AFTER you see the typing prompt.

Press 'enter/return' to go to the next page.","While watching the video, imagine yourself typing the word on the screen, like how you did in the imagery practice. While you watch the video and imagine this, rest your hands on your keyboard but DO NOT type until AFTER you see the typing prompt.

Press 'enter/return' to go to the next page.",video&audio/Example_AOMI_imagine.png,1.6,1,butter,6.5,7.5,video&audio/butter_TT_3X.mp4,video&audio/amount_TT_3X.mp4,eatery,ascend,19.5,20.5,video&audio/plight_touch_edited.mp4,video&audio/Sentence2_touch_edited.mp4,plight,metric,2 = AOMIgen,,,,,,,,,,,,,,,,,,,,,,,,,,,,,,,,,,,,,,,,,,,0,16,16,1,,,,,,,,,,,,,,,,,,,,,,,,,,,,,,,,,,,,,,,,,,,,,,,,,3661.6904957000006,3681.2065507999996,None, ascend,"['a', 's', 'c', 'e', 'n', 'd', 'return']","[0.7941829999999754, 1.345849299999827, 1.7228978000002826, 1.9781716999987111, 2.1623998999984906, 2.5391670999997586, 3.2504439999993338]",,,,,,,,,,24,001,C,2023_Feb_08_1047,student_TT_local,2021.1.4,60.05154824905615,
,None,None,None,None,None,None,None,None,None,None,gullet,picket,6.5,7.5,video&audio/upkeep_TT_3X.mp4,video&audio/sentence5_TT_3X.mp4,upkeep,parish,None,,,,,,,,,,,,,,,,,,,,,,,,,,,,,,,,,,,,,,,,,,,0,17,17,28,,,,,,,,,,,,,,,,,,,,,,,,,,,,,,,,,,,,,,,,,,,,,,,,,3685.485745,3691.996228599999,None, picket,"['p', 'i', 'c', 'k', 'e', 't', 'return']","[1.0485251000009157, 1.3530623000006017, 2.000560000000405, 2.240651900001467, 2.5368336999999883, 2.6652039000000514, 3.512631400000828]",,,,,,,,,,24,001,C,2023_Feb_08_1047,student_TT_local,2021.1.4,60.05154824905615,
,None,None,None,None,None,None,None,None,None,None,revoke,malady,19.5,20.5,video&audio/mirage_touch_edited.mp4,video&audio/Sentence1_touch_edited.mp4,mirage,shrewd,None,,,,,,,,,,,,,,,,,,,,,,,,,,,,,,,,,,,,,,,,,,,0,18,18,6,,,,,,,,,,,,,,,,,,,,,,,,,,,,,,,,,,,,,,,,,,,,,,,,,3696.5495100999997,3716.0546164999996,None, malady,"['m', 'a', 'l', 'a', 'd', 'y', 'return']","[0.9587003000015102, 1.2783840000010969, 1.8063762000001589, 1.9023664000014833, 2.174473000000944, 2.326359600001524, 2.79030210000019]",,,,,,,,,,24,001,C,2023_Feb_08_1047,student_TT_local,2021.1.4,60.05154824905615,
,None,None,None,None,None,None,None,None,None,None,ordain,neural,19.5,20.5,video&audio/quarry_touch_edited.mp4,video&audio/Sentence2_touch_edited.mp4,quarry,septic,None,,,,,,,,,,,,,,,,,,,,,,,,,,,,,,,,,,,,,,,,,,,0,19,19,13,,,,,,,,,,,,,,,,,,,,,,,,,,,,,,,,,,,,,,,,,,,,,,,,,3719.879558299999,3739.3973423999996,None, neural,"['n', 'e', 'u', 'r', 'a', 'l', 'return']","[0.9954439999983151, 1.3880304999984219, 1.5238245999989886, 1.8676553999994212, 2.0593519999983982, 2.219845699999496, 3.0194199999987177]",,,,,,,,,,24,001,C,2023_Feb_08_1047,student_TT_local,2021.1.4,60.05154824905615,
,None,None,None,None,None,None,None,None,None,None,mystic,pulpit,19.5,20.5,video&audio/infirm_touch_edited.mp4,video&audio/Sentence4_touch_edited.mp4,infirm,oblige,None,,,,,,,,,,,,,,,,,,,,,,,,,,,,,,,,,,,,,,,,,,,0,20,20,3,,,,,,,,,,,,,,,,,,,,,,,,,,,,,,,,,,,,,,,,,,,,,,,,,3809.0351597999997,3828.5559243999996,None, pulpit,"['p', 'u', 'l', 'p', 'i', 't', 'return']","[0.9175218999989738, 1.2213195999993331, 1.598074400000769, 2.0291063000004215, 2.646220299999186, 2.957424700000047, 3.429269899999781]",,,,,,,,,,24,001,C,2023_Feb_08_1047,student_TT_local,2021.1.4,60.05154824905615,
,"This is Section 2.

In this section, your task will be the same as before - that is, to type the word you see on the screen after the typing prompt. However, rather than just seeing the word before typing, you will also see a video of someone typing the same word you will need to type at various speeds. 

Press 'enter/return' to go to the next page.","This is Section 4. 

In this section, your task will be the same as before - that is, to type the word you see on the screen after the typing prompt. You will see a video again, like in Section 2, only this time, the video will show someone typing different words to what you must type at various speeds. 

Press 'enter/return' to go to the next page.",video&audio/Example_AOMI_layout.png,1.6,0.6,afford,19.5,20.5,video&audio/afford_touch_edited.mp4,video&audio/amount_touch_edited.mp4,breach,matrix,19.5,20.5,video&audio/vanity_touch_edited.mp4,video&audio/Sentence1_touch_edited.mp4,vanity,hinder,1 = AOMIspec,,,,,,,,,,,,,,,,,,,,,,,,,,,,,,,,,,,,,,,,,,,0,21,21,0,,,,,,,,,,,,,,,,,,,,,,,,,,,,,,,,,,,,,,,,,,,,,,,,,3833.0149905,3852.5219784,None, matirx,"['m', 'a', 't', 'i', 'r', 'x', 'return']","[1.2821263000005274, 1.52270960000169, 2.1301031000002695, 2.3228075000006356, 2.5301983000008477, 3.1787675000014133, 3.586630100000548]",,,,,,,,,,24,001,C,2023_Feb_08_1047,student_TT_local,2021.1.4,60.05154824905615,
,None,None,None,None,None,None,None,None,None,None,herbal,hippie,19.5,20.5,video&audio/sonnet_touch_edited.mp4,video&audio/Sentence3_touch_edited.mp4,sonnet,hearth,None,,,,,,,,,,,,,,,,,,,,,,,,,,,,,,,,,,,,,,,,,,,0,22,22,14,,,,,,,,,,,,,,,,,,,,,,,,,,,,,,,,,,,,,,,,,,,,,,,,,3857.1490515999994,3876.6639551000007,None, hippie,"['h', 'i', 'p', 'p', 'i', 'e', 'return']","[1.1590303000011772, 1.4316572000007, 1.967899999999645, 2.1509849000012764, 2.455174700000498, 2.99107770000046, 3.3753056000005017]",,,,,,,,,,24,001,C,2023_Feb_08_1047,student_TT_local,2021.1.4,60.05154824905615,
,None,None,None,None,None,None,None,None,None,None,apathy,virile,19.5,20.5,video&audio/revolt_touch_edited.mp4,video&audio/Sentence6_touch_edited.mp4,revolt,joiner,None,,,,,,,,,,,,,,,,,,,,,,,,,,,,,,,,,,,,,,,,,,,0,23,23,5,,,,,,,,,,,,,,,,,,,,,,,,,,,,,,,,,,,,,,,,,,,,,,,,,3881.0818115,3900.596712299999,None, virile,"['v', 'i', 'r', 'i', 'l', 'e', 'return']","[1.180393799999365, 1.4443542000008165, 2.1243061000004673, 2.4293806000005134, 2.6443378000003577, 2.7803576000005705, 2.95658689999982]",,,,,,,,,,24,001,C,2023_Feb_08_1047,student_TT_local,2021.1.4,60.05154824905615,
,None,None,None,None,None,None,None,None,None,None,linear,belfry,6.5,7.5,video&audio/manure_TT_3X.mp4,video&audio/sentence6_TT_3X.mp4,manure,girdle,None,,,,,,,,,,,,,,,,,,,,,,,,,,,,,,,,,,,,,,,,,,,0,24,24,23,,,,,,,,,,,,,,,,,,,,,,,,,,,,,,,,,,,,,,,,,,,,,,,,,3904.5794322,3911.0894941000006,None, belfry,"['b', 'e', 'l', 'f', 'r', 'y', 'return']","[0.9225007999993977, 1.698265299999548, 1.8432905999998184, 2.0822922000006656, 2.330831900000703, 2.5383266000008007, 3.274596900000688]",,,,,,,,,,24,001,C,2023_Feb_08_1047,student_TT_local,2021.1.4,60.05154824905615,
,None,None,None,None,None,None,None,None,None,None,portal,ritual,6.5,7.5,video&audio/coerce_TT_3X.mp4,video&audio/sentence6_TT_3X.mp4,coerce,clergy,None,,,,,,,,,,,,,,,,,,,,,,,,,,,,,,,,,,,,,,,,,,,0,25,25,17,,,,,,,,,,,,,,,,,,,,,,,,,,,,,,,,,,,,,,,,,,,,,,,,,3915.3970833000003,3921.9118593999992,None, ritual,"['r', 'i', 't', 'u', 'a', 'l', 'return']","[1.060278400000243, 1.4682885000001988, 2.292678399999204, 2.5157474000006914, 2.7557901999989554, 2.9168061000000307, 3.284536900000603]",,,,,,,,,,24,001,C,2023_Feb_08_1047,student_TT_local,2021.1.4,60.05154824905615,
,None,None,None,None,None,None,None,None,None,None,nettle,plasma,6.5,7.5,video&audio/deduct_TT_3X.mp4,video&audio/sentence5_TT_3X.mp4,deduct,jailer,None,,,,,,,,,,,,,,,,,,,,,,,,,,,,,,,,,,,,,,,,,,,0,26,26,16,,,,,,,,,,,,,,,,,,,,,,,,,,,,,,,,,,,,,,,,,,,,,,,,,3926.2293260999995,3932.7380524,None, plasma,"['p', 'l', 'a', 's', 'm', 'a', 'return']","[0.5455437999989954, 0.7777240999985224, 0.9454703999999765, 1.2417661999988923, 1.4421722999995836, 1.6500163999990036, 2.0496903999992355]",,,,,,,,,,24,001,C,2023_Feb_08_1047,student_TT_local,2021.1.4,60.05154824905615,
,None,None,None,None,None,None,None,None,None,None,shroud,jackal,19.5,20.5,video&audio/parole_touch_edited.mp4,video&audio/Sentence4_touch_edited.mp4,parole,hamlet,None,,,,,,,,,,,,,,,,,,,,,,,,,,,,,,,,,,,,,,,,,,,0,27,27,9,,,,,,,,,,,,,,,,,,,,,,,,,,,,,,,,,,,,,,,,,,,,,,,,,3935.8273874999995,3955.3378496999994,None, jackal,"['j', 'a', 'c', 'k', 'a', 'l', 'return']","[1.2657366000003094, 1.442426699999487, 1.7305429999996704, 1.9377561000001151, 2.1219411000001855, 2.6262912999991386, 2.994757499998741]",,,,,,,,,,24,001,C,2023_Feb_08_1047,student_TT_local,2021.1.4,60.05154824905615,
,None,None,None,None,None,None,None,None,None,None,tamper,confer,19.5,20.5,video&audio/critic_touch_edited.mp4,video&audio/Sentence1_touch_edited.mp4,critic,innate,None,,,,,,,,,,,,,,,,,,,,,,,,,,,,,,,,,,,,,,,,,,,0,28,28,12,,,,,,,,,,,,,,,,,,,,,,,,,,,,,,,,,,,,,,,,,,,,,,,,,3959.3780595999997,3978.892730400001,None, confer,"['c', 'o', 'n', 'f', 'e', 'r', 'return']","[0.9642258000003494, 1.4048915000003035, 1.5007102999989002, 1.7482285999994929, 2.0760424000000057, 2.2049936999992497, 3.1006517999994685]",,,,,,,,,,24,001,C,2023_Feb_08_1047,student_TT_local,2021.1.4,60.05154824905615,
,None,None,None,None,None,None,None,None,None,None,allure,forage,6.5,7.5,video&audio/legion_TT_3X.mp4,video&audio/sentence6_TT_3X.mp4,legion,campus,None,,,,,,,,,,,,,,,,,,,,,,,,,,,,,,,,,,,,,,,,,,,0,29,29,29,,,,,,,,,,,,,,,,,,,,,,,,,,,,,,,,,,,,,,,,,,,,,,,,,3983.0253059999995,3989.535384499999,None, forage,"['f', 'o', 'r', 'a', 'g', 'e', 'return']","[1.4480633000002854, 1.9764200000008714, 2.272014500000296, 2.696135199999844, 2.9279218000010587, 3.2723100000002887, 3.5998342000002594]",,,,,,,,,,24,001,C,2023_Feb_08_1047,student_TT_local,2021.1.4,60.05154824905615,
,,,,,,,,,,,,,,,,,,,,typingRatingScale.png,"How would you rate your typing performance in the previous section?

Press a number on your keyboard according to the rating scale below to give your answer. Your first answer will be accepted.",,,,,,,,,,,,,,,,,,,,,,,,,,,,,,,,,,,,,,,,,,,,,0,0,0,0,,,,,,,,,,,,,,,,,,,,,,,,,,,,,,,,,,,,,,,,,,,,,,,,,,,['4'],[5.4499104999995325],,,,,,,,24,001,C,2023_Feb_08_1047,student_TT_local,2021.1.4,60.05154824905615,
,,,,,,,,,,,,,,,,,,,,imageryCheckScale.png,"In the previous section did you imagine yourself typing?

Press a number on your keyboard according to the rating scale below to give your answer. Your first answer will be accepted.",,,,,,,,,,,,,,,,,,,,,,,,,,,,,,,,,,,,,,,,,,,,,0,1,1,1,,,,,,,,,,,,,,,,,,,,,,,,,,,,,,,,,,,,,,,,,,,,,,,,,,,['2'],[5.521609199999148],,,,,,,,24,001,C,2023_Feb_08_1047,student_TT_local,2021.1.4,60.05154824905615,
,None,None,None,None,None,None,None,None,None,None,uphold,debtor,6.5,7.5,video&audio/convoy_TT_3X.mp4,video&audio/sentence1_TT_3X.mp4,convoy,output,None,,,,,,,,,,,,,,,,,,,,,,,,,,,,,,,,,,,,,,,,,,,,,,,,,,,,,,,,,,,0,0,0,18,,,,,,,,,,,,,,,,,None,"['b', 'u', 't', 't', 'e', 'r', 'return']","[0.703560899999502, 0.9200275000002875, 1.2073720999997022, 1.4082852000010462, 1.6157708000009734, 1.767857599999843, 2.127402100000836]",,,,,,,,,,,,,,,,,,,,,,None,None, output,"['o', 'u', 't', 'p', 'u', 't', 'return']","[0.5727895999989414, 0.7250264999984211, 1.0284392999983538, 1.3889982999990025, 1.6610466999991331, 1.9404211999990366, 2.149151699999493]",,,24,001,C,2023_Feb_08_1047,student_TT_local,2021.1.4,60.05154824905615,
,None,None,None,None,None,None,None,None,None,None,mystic,pulpit,19.5,20.5,video&audio/infirm_touch_edited.mp4,video&audio/Sentence4_touch_edited.mp4,infirm,oblige,None,,,,,,,,,,,,,,,,,,,,,,,,,,,,,,,,,,,,,,,,,,,,,,,,,,,,,,,,,,,0,1,1,3,,,,,,,,,,,,,,,,,None,,,,,,,,,,,,,,,,,,,,,,,,,None, oblige,"['o', 'b', 'l', 'i', 'g', 'e', 'return']","[0.7445501000001968, 1.0804143000004842, 1.353023600000597, 1.6643003999997745, 1.912258500000462, 2.088771999999153, 2.4565316999996867]",,,24,001,C,2023_Feb_08_1047,student_TT_local,2021.1.4,60.05154824905615,
,None,None,None,None,None,None,None,None,None,None,ethnic,botany,6.5,7.5,video&audio/fodder_TT_3X.mp4,video&audio/sentence4_TT_3X.mp4,fodder,trench,None,,,,,,,,,,,,,,,,,,,,,,,,,,,,,,,,,,,,,,,,,,,,,,,,,,,,,,,,,,,0,2,2,27,,,,,,,,,,,,,,,,,None,,,,,,,,,,,,,,,,,,,,,,,,,None, treach,"['t', 'r', 'e', 'a', 'c', 'h', 'return']","[1.0075168000003032, 1.2545706000000791, 1.319276099999115, 1.4707680999999866, 1.7587445999997726, 1.910929199999373, 2.4790955999997095]",,,24,001,C,2023_Feb_08_1047,student_TT_local,2021.1.4,60.05154824905615,
,None,None,None,None,None,None,None,None,None,None,origin,falter,6.5,7.5,video&audio/potent_TT_3X.mp4,video&audio/sentence4_TT_3X.mp4,potent,tandem,None,,,,,,,,,,,,,,,,,,,,,,,,,,,,,,,,,,,,,,,,,,,,,,,,,,,,,,,,,,,0,3,3,15,,,,,,,,,,,,,,,,,None,,,,,,,,,,,,,,,,,,,,,,,,,None, tandem,"['t', 'a', 'n', 'd', 'e', 'm', 'return']","[0.7943606999997428, 1.0903010000001814, 1.3224097000002075, 1.6909930000001623, 1.9307408000004216, 2.0747130999989167, 2.9075291999997717]",,,24,001,C,2023_Feb_08_1047,student_TT_local,2021.1.4,60.05154824905615,
,None,None,None,None,None,None,None,None,None,None,divert,kipper,6.5,7.5,video&audio/musket_TT_3X.mp4,video&audio/sentence2_TT_3X.mp4,musket,meddle,None,,,,,,,,,,,,,,,,,,,,,,,,,,,,,,,,,,,,,,,,,,,,,,,,,,,,,,,,,,,0,4,4,25,,,,,,,,,,,,,,,,,None,,,,,,,,,,,,,,,,,,,,,,,,,None, meddle,"['m', 'e', 'd', 'd', 'l', 'e', 'return']","[0.7379683999988629, 0.9462278999999398, 1.2494508999989193, 1.4497359999986656, 1.6576838999990287, 1.8896948999990855, 2.265790499999639]",,,24,001,C,2023_Feb_08_1047,student_TT_local,2021.1.4,60.05154824905615,
,None,None,None,None,None,None,None,None,None,None,defame,covert,19.5,20.5,video&audio/binder_touch_edited.mp4,video&audio/Sentence6_touch_edited.mp4,binder,patent,None,,,,,,,,,,,,,,,,,,,,,,,,,,,,,,,,,,,,,,,,,,,,,,,,,,,,,,,,,,,0,5,5,11,,,,,,,,,,,,,,,,,None,,,,,,,,,,,,,,,,,,,,,,,,,None, patent,"['p', 'a', 't', 'e', 'n', 't', 'return']","[0.9068475999993098, 1.1144891999992979, 1.3788652999992337, 1.4910032999996474, 1.7066204999991896, 2.1548108999995748, 2.7785048999994615]",,,24,001,C,2023_Feb_08_1047,student_TT_local,2021.1.4,60.05154824905615,
,None,None,None,None,None,None,None,None,None,None,portal,ritual,6.5,7.5,video&audio/coerce_TT_3X.mp4,video&audio/sentence6_TT_3X.mp4,coerce,clergy,None,,,,,,,,,,,,,,,,,,,,,,,,,,,,,,,,,,,,,,,,,,,,,,,,,,,,,,,,,,,0,6,6,17,,,,,,,,,,,,,,,,,None,,,,,,,,,,,,,,,,,,,,,,,,,None, clergy,"['c', 'l', 'e', 'r', 'g', 'y', 'return']","[1.0840355000000272, 1.4046706999997696, 1.9007572999998956, 2.163915299999644, 2.579827800000203, 2.7807649000005767, 3.268147799999497]",,,24,001,C,2023_Feb_08_1047,student_TT_local,2021.1.4,60.05154824905615,
,None,None,None,None,None,None,None,None,None,None,ration,solemn,19.5,20.5,video&audio/goblet_touch_edited.mp4,video&audio/Sentence3_touch_edited.mp4,goblet,befall,None,,,,,,,,,,,,,,,,,,,,,,,,,,,,,,,,,,,,,,,,,,,,,,,,,,,,,,,,,,,0,7,7,8,,,,,,,,,,,,,,,,,None,,,,,,,,,,,,,,,,,,,,,,,,,None, befall,"['b', 'e', 'f', 'a', 'l', 'l', 'return']","[0.8820835999995325, 1.1059687999986636, 1.4024129999997967, 1.6095186000002286, 1.8576284999999189, 2.0502469999992172, 2.5136416999994253]",,,24,001,C,2023_Feb_08_1047,student_TT_local,2021.1.4,60.05154824905615,
,None,None,None,None,None,None,None,None,None,None,shrill,piston,6.5,7.5,video&audio/pursue_TT_3X.mp4,video&audio/sentence3_TT_3X.mp4,pursue,caviar,None,,,,,,,,,,,,,,,,,,,,,,,,,,,,,,,,,,,,,,,,,,,,,,,,,,,,,,,,,,,0,8,8,20,,,,,,,,,,,,,,,,,None,,,,,,,,,,,,,,,,,,,,,,,,,None, caviar,"['c', 'a', 'v', 'i', 'a', 'r', 'return']","[1.4082320999987132, 1.6799621999998635, 2.103973399998722, 2.2722168999989663, 2.5041549999987183, 2.688040099999853, 3.1279440999987855]",,,24,001,C,2023_Feb_08_1047,student_TT_local,2021.1.4,60.05154824905615,
,None,None,None,None,None,None,None,None,None,None,apathy,virile,19.5,20.5,video&audio/revolt_touch_edited.mp4,video&audio/Sentence6_touch_edited.mp4,revolt,joiner,None,,,,,,,,,,,,,,,,,,,,,,,,,,,,,,,,,,,,,,,,,,,,,,,,,,,,,,,,,,,0,9,9,5,,,,,,,,,,,,,,,,,None,,,,,,,,,,,,,,,,,,,,,,,,,None, joiner,"['j', 'o', 'i', 'n', 'e', 'r', 'return']","[0.7087971000000834, 1.0198519000005035, 1.2437999000012496, 1.500042300000132, 1.668245200000456, 1.7969678999997996, 2.283972300001551]",,,24,001,C,2023_Feb_08_1047,student_TT_local,2021.1.4,60.05154824905615,
,None,None,None,None,None,None,None,None,None,None,linear,belfry,6.5,7.5,video&audio/manure_TT_3X.mp4,video&audio/sentence6_TT_3X.mp4,manure,girdle,None,,,,,,,,,,,,,,,,,,,,,,,,,,,,,,,,,,,,,,,,,,,,,,,,,,,,,,,,,,,0,10,10,23,,,,,,,,,,,,,,,,,None,,,,,,,,,,,,,,,,,,,,,,,,,None, girdle,"['g', 'i', 'r', 'd', 'l', 'e', 'return']","[1.3150108000008913, 1.4991898000007495, 1.803287000000637, 2.5715146999991703, 3.003139000000374, 3.251260499999262, 3.6990476999999373]",,,24,001,C,2023_Feb_08_1047,student_TT_local,2021.1.4,60.05154824905615,
,"While you watch the video, imagine yourself typing the word on the screen, like how you did in the imagery practice. While you watch the video and imagine this, rest your hands on your keyboard but DO NOT type until AFTER you see the typing prompt.

Press 'enter/return' to go to the next page.","While watching the video, imagine yourself typing the word on the screen, like how you did in the imagery practice. While you watch the video and imagine this, rest your hands on your keyboard but DO NOT type until AFTER you see the typing prompt.

Press 'enter/return' to go to the next page.",video&audio/Example_AOMI_imagine.png,1.6,1,butter,6.5,7.5,video&audio/butter_TT_3X.mp4,video&audio/amount_TT_3X.mp4,eatery,ascend,19.5,20.5,video&audio/plight_touch_edited.mp4,video&audio/Sentence2_touch_edited.mp4,plight,metric,2 = AOMIgen,,,,,,,,,,,,,,,,,,,,,,,,,,,,,,,,,,,,,,,,,,,,,,,,,,,,,,,,,,,0,11,11,1,,,,,,,,,,,,,,,,,None,,,,,,,,,,,,,,,,,,,,,,,,,None, metric,"['m', 'e', 't', 'r', 'i', 'c', 'return']","[0.911457900001551, 1.1675272000011319, 1.392071100000976, 1.824026899999808, 2.0717373000006774, 2.3445089000015287, 2.6556701000008616]",,,24,001,C,2023_Feb_08_1047,student_TT_local,2021.1.4,60.05154824905615,
,None,None,None,None,None,None,None,None,None,None,entail,parcel,19.5,20.5,video&audio/novice_touch_edited.mp4,video&audio/Sentence5_touch_edited.mp4,novice,primal,None,,,,,,,,,,,,,,,,,,,,,,,,,,,,,,,,,,,,,,,,,,,,,,,,,,,,,,,,,,,0,12,12,4,,,,,,,,,,,,,,,,,None,,,,,,,,,,,,,,,,,,,,,,,,,None, primal,"['p', 'r', 'i', 'm', 'a', 'l', 'return']","[1.0588691999982984, 1.4434034999994765, 1.6665825999989465, 2.050746099999742, 2.3390102999983355, 2.6508543999989342, 3.0116272999985085]",,,24,001,C,2023_Feb_08_1047,student_TT_local,2021.1.4,60.05154824905615,
,None,None,None,None,None,None,None,None,None,None,herbal,hippie,19.5,20.5,video&audio/sonnet_touch_edited.mp4,video&audio/Sentence3_touch_edited.mp4,sonnet,hearth,None,,,,,,,,,,,,,,,,,,,,,,,,,,,,,,,,,,,,,,,,,,,,,,,,,,,,,,,,,,,0,13,13,14,,,,,,,,,,,,,,,,,None,,,,,,,,,,,,,,,,,,,,,,,,,None, hearth,"['h', 'e', 'a', 'r', 't', 'h', 'return']","[0.7956195000006119, 1.0594595999991725, 1.2594429000000673, 1.5396760999992694, 1.7880784000008134, 1.9153459999997722, 2.603544300000067]",,,24,001,C,2023_Feb_08_1047,student_TT_local,2021.1.4,60.05154824905615,
,None,None,None,None,None,None,None,None,None,None,gullet,picket,6.5,7.5,video&audio/upkeep_TT_3X.mp4,video&audio/sentence5_TT_3X.mp4,upkeep,parish,None,,,,,,,,,,,,,,,,,,,,,,,,,,,,,,,,,,,,,,,,,,,,,,,,,,,,,,,,,,,0,14,14,28,,,,,,,,,,,,,,,,,None,,,,,,,,,,,,,,,,,,,,,,,,,None, parish,"['p', 'a', 'r', 'i', 's', 'h', 'return']","[0.675888899999336, 0.9798721999995905, 1.1555900999992446, 1.3877421999986836, 1.6836214999984804, 1.8282750999987911, 2.275754999998753]",,,24,001,C,2023_Feb_08_1047,student_TT_local,2021.1.4,60.05154824905615,
,None,None,None,None,None,None,None,None,None,None,warble,devise,6.5,7.5,video&audio/satire_TT_3X.mp4,video&audio/sentence1_TT_3X.mp4,satire,mangle,None,,,,,,,,,,,,,,,,,,,,,,,,,,,,,,,,,,,,,,,,,,,,,,,,,,,,,,,,,,,0,15,15,24,,,,,,,,,,,,,,,,,None,,,,,,,,,,,,,,,,,,,,,,,,,None, mangle,"['m', 'a', 'n', 'g', 'l', 'e', 'return']","[0.834489200000462, 1.1795731999991403, 1.322897699999885, 1.5470924000001105, 1.8186953000003996, 2.0829505999990943, 2.5705292000002373]",,,24,001,C,2023_Feb_08_1047,student_TT_local,2021.1.4,60.05154824905615,
,"Remember to type as QUICKLY and ACCURATELY as possible after the 'get ready' prompt.

Ask the experimenter any questions now. Please put on the headphones.

You will get one practice trial. Press 'enter/return' when you are ready to start the practice.","Remember to type as QUICKLY and ACCURATELY as you can after the 'get ready' prompt.

Ask the experimenter any questions now. Please put on the headphones.

You will get one practice trial. Press 'enter/return' when you are ready to start the practice.",video&audio/Example_AOMI_total.png,1.8,0.7,None,None,None,None,None,ghetto,frugal,19.5,20.5,video&audio/jargon_touch_edited.mp4,video&audio/Sentence3_touch_edited.mp4,jargon,oppose,None,,,,,,,,,,,,,,,,,,,,,,,,,,,,,,,,,,,,,,,,,,,,,,,,,,,,,,,,,,,0,16,16,2,,,,,,,,,,,,,,,,,None,,,,,,,,,,,,,,,,,,,,,,,,,None, oppose,"['o', 'p', 'p', 'o', 's', 'e', 'return']","[0.6539560000001075, 0.9820328000005247, 1.1979284000008192, 1.5583299000008992, 1.870025700000042, 2.31076960000064, 2.854033800000252]",,,24,001,C,2023_Feb_08_1047,student_TT_local,2021.1.4,60.05154824905615,
,"This is Section 2.

In this section, your task will be the same as before - that is, to type the word you see on the screen after the typing prompt. However, rather than just seeing the word before typing, you will also see a video of someone typing the same word you will need to type at various speeds. 

Press 'enter/return' to go to the next page.","This is Section 4. 

In this section, your task will be the same as before - that is, to type the word you see on the screen after the typing prompt. You will see a video again, like in Section 2, only this time, the video will show someone typing different words to what you must type at various speeds. 

Press 'enter/return' to go to the next page.",video&audio/Example_AOMI_layout.png,1.6,0.6,afford,19.5,20.5,video&audio/afford_touch_edited.mp4,video&audio/amount_touch_edited.mp4,breach,matrix,19.5,20.5,video&audio/vanity_touch_edited.mp4,video&audio/Sentence1_touch_edited.mp4,vanity,hinder,1 = AOMIspec,,,,,,,,,,,,,,,,,,,,,,,,,,,,,,,,,,,,,,,,,,,,,,,,,,,,,,,,,,,0,17,17,0,,,,,,,,,,,,,,,,,None,,,,,,,,,,,,,,,,,,,,,,,,,None, hinder,"['h', 'i', 'n', 'd', 'e', 'r', 'return']","[0.7261390000003303, 0.9574111999991146, 1.1810260999991442, 1.3489616999995633, 1.5809847000000445, 1.7099160999987362, 2.030114400000457]",,,24,001,C,2023_Feb_08_1047,student_TT_local,2021.1.4,60.05154824905615,
,None,None,None,None,None,None,None,None,None,None,revoke,malady,19.5,20.5,video&audio/mirage_touch_edited.mp4,video&audio/Sentence1_touch_edited.mp4,mirage,shrewd,None,,,,,,,,,,,,,,,,,,,,,,,,,,,,,,,,,,,,,,,,,,,,,,,,,,,,,,,,,,,0,18,18,6,,,,,,,,,,,,,,,,,None,,,,,,,,,,,,,,,,,,,,,,,,,None, shrewd,"['s', 'h', 'r', 'e', 'w', 'd', 'return']","[0.7842678999986674, 0.984087199998612, 1.2642538000000059, 1.391990000000078, 1.5609042999985832, 1.936383799999021, 2.4799917999989702]",,,24,001,C,2023_Feb_08_1047,student_TT_local,2021.1.4,60.05154824905615,
,None,None,None,None,None,None,None,None,None,None,ordain,neural,19.5,20.5,video&audio/quarry_touch_edited.mp4,video&audio/Sentence2_touch_edited.mp4,quarry,septic,None,,,,,,,,,,,,,,,,,,,,,,,,,,,,,,,,,,,,,,,,,,,,,,,,,,,,,,,,,,,0,19,19,13,,,,,,,,,,,,,,,,,None,,,,,,,,,,,,,,,,,,,,,,,,,None, septic,"['s', 'e', 'p', 't', 'i', 'c', 'return']","[0.6484443999997893, 0.8970246999997471, 1.401656500000172, 1.8413101000005554, 2.032758000001195, 2.4487097000001086, 2.9284705000009126]",,,24,001,C,2023_Feb_08_1047,student_TT_local,2021.1.4,60.05154824905615,
,None,None,None,None,None,None,None,None,None,None,allure,forage,6.5,7.5,video&audio/legion_TT_3X.mp4,video&audio/sentence6_TT_3X.mp4,legion,campus,None,,,,,,,,,,,,,,,,,,,,,,,,,,,,,,,,,,,,,,,,,,,,,,,,,,,,,,,,,,,0,20,20,29,,,,,,,,,,,,,,,,,None,,,,,,,,,,,,,,,,,,,,,,,,,None, campus,"['c', 'a', 'p', 'u', 's', 'return']","[0.550579499999003, 0.7504621999996743, 1.2067991999992955, 1.4703121000002284, 1.6633911999997508, 2.086751099999674]",,,24,001,C,2023_Feb_08_1047,student_TT_local,2021.1.4,60.05154824905615,
,None,None,None,None,None,None,None,None,None,None,nettle,plasma,6.5,7.5,video&audio/deduct_TT_3X.mp4,video&audio/sentence5_TT_3X.mp4,deduct,jailer,None,,,,,,,,,,,,,,,,,,,,,,,,,,,,,,,,,,,,,,,,,,,,,,,,,,,,,,,,,,,0,21,21,16,,,,,,,,,,,,,,,,,None,,,,,,,,,,,,,,,,,,,,,,,,,None, jailer,"['j', 'a', 'i', 'l', 'e', 'r', 'return']","[0.8181334000000788, 1.066002399998979, 1.234537399999681, 1.4580747999989399, 1.6265282000003936, 1.7709869999998773, 2.0579909999996744]",,,24,001,C,2023_Feb_08_1047,student_TT_local,2021.1.4,60.05154824905615,
,None,None,None,None,None,None,None,None,None,None,galley,tariff,19.5,20.5,video&audio/strife_touch_edited.mp4,video&audio/Sentence2_touch_edited.mp4,strife,delude,None,,,,,,,,,,,,,,,,,,,,,,,,,,,,,,,,,,,,,,,,,,,,,,,,,,,,,,,,,,,0,22,22,7,,,,,,,,,,,,,,,,,None,,,,,,,,,,,,,,,,,,,,,,,,,None, delude,"['d', 'e', 'l', 'u', 'd', 'e', 'return']","[0.7186322999987169, 1.1508951999985584, 1.4301987999988341, 1.7023916999987705, 1.8862309999985882, 1.9901912999994238, 2.8797350999993796]",,,24,001,C,2023_Feb_08_1047,student_TT_local,2021.1.4,60.05154824905615,
,None,None,None,None,None,None,None,None,None,None,shroud,jackal,19.5,20.5,video&audio/parole_touch_edited.mp4,video&audio/Sentence4_touch_edited.mp4,parole,hamlet,None,,,,,,,,,,,,,,,,,,,,,,,,,,,,,,,,,,,,,,,,,,,,,,,,,,,,,,,,,,,0,23,23,9,,,,,,,,,,,,,,,,,None,,,,,,,,,,,,,,,,,,,,,,,,,None, hamlet,"['h', 'a', 'm', 'l', 'e', 't', 'return']","[1.1167891000004602, 1.3646177999999054, 1.7649371000006795, 2.109314200000881, 2.6372633000009955, 2.90059520000068, 3.5886361000011675]",,,24,001,C,2023_Feb_08_1047,student_TT_local,2021.1.4,60.05154824905615,
,None,None,None,None,None,None,None,None,None,None,mucous,subtle,6.5,7.5,video&audio/brazen_TT_3X.mp4,video&audio/sentence5_TT_3X.mp4,brazen,fungal,None,,,,,,,,,,,,,,,,,,,,,,,,,,,,,,,,,,,,,,,,,,,,,,,,,,,,,,,,,,,0,24,24,22,,,,,,,,,,,,,,,,,None,,,,,,,,,,,,,,,,,,,,,,,,,None, fungal,"['f', 'u', 'n', 'g', 'a', 'l', 'return']","[0.7542926999994961, 0.9948946999993495, 1.1547250999992684, 1.474564599999212, 1.7462047999997594, 1.9307370999995328, 2.4265959999993356]",,,24,001,C,2023_Feb_08_1047,student_TT_local,2021.1.4,60.05154824905615,
,None,None,None,None,None,None,None,None,None,None,fusion,obsess,19.5,20.5,video&audio/sherry_touch_edited.mp4,video&audio/Sentence5_touch_edited.mp4,sherry,zephyr,None,,,,,,,,,,,,,,,,,,,,,,,,,,,,,,,,,,,,,,,,,,,,,,,,,,,,,,,,,,,0,25,25,10,,,,,,,,,,,,,,,,,None,,,,,,,,,,,,,,,,,,,,,,,,,None, zephyr,"['z', 'e', 'p', 'h', 'y', 't', 'backspace', 'r', 'return']","[0.674280400000498, 1.1699645000007877, 1.5700018000006821, 1.8591806000003999, 2.5139978999995947, 2.9542729999993753, 3.6500180999992153, 3.8591773999996803, 4.050273599999855]",,,24,001,C,2023_Feb_08_1047,student_TT_local,2021.1.4,60.05154824905615,
,None,None,None,None,None,None,None,None,None,None,matron,subdue,6.5,7.5,video&audio/impose_TT_3X.mp4,video&audio/sentence3_TT_3X.mp4,impose,feudal,None,,,,,,,,,,,,,,,,,,,,,,,,,,,,,,,,,,,,,,,,,,,,,,,,,,,,,,,,,,,0,26,26,26,,,,,,,,,,,,,,,,,None,,,,,,,,,,,,,,,,,,,,,,,,,None, feudal,"['f', 'e', 'u', 'd', 'a', 'l', 'return']","[0.7041840000001685, 0.9682891000011296, 1.1361910000014177, 1.3444736000001285, 1.5845506000005116, 1.768306500000108, 2.1124976000010065]",,,24,001,C,2023_Feb_08_1047,student_TT_local,2021.1.4,60.05154824905615,
,None,None,None,None,None,None,None,None,None,None,export,cervix,6.5,7.5,video&audio/murmur_TT_3X.mp4,video&audio/sentence2_TT_3X.mp4,murmur,cobble,None,,,,,,,,,,,,,,,,,,,,,,,,,,,,,,,,,,,,,,,,,,,,,,,,,,,,,,,,,,,0,27,27,19,,,,,,,,,,,,,,,,,None,,,,,,,,,,,,,,,,,,,,,,,,,None, cobble,"['c', 'o', 'b', 'b', 'l', 'e', 'return']","[0.5684290999997756, 0.8084883999999875, 0.9524180000007618, 1.1445196000004216, 1.7843821000005846, 2.1049990999999864, 2.3686004000010143]",,,24,001,C,2023_Feb_08_1047,student_TT_local,2021.1.4,60.05154824905615,
,None,None,None,None,None,None,None,None,None,None,tamper,confer,19.5,20.5,video&audio/critic_touch_edited.mp4,video&audio/Sentence1_touch_edited.mp4,critic,innate,None,,,,,,,,,,,,,,,,,,,,,,,,,,,,,,,,,,,,,,,,,,,,,,,,,,,,,,,,,,,0,28,28,12,,,,,,,,,,,,,,,,,None,,,,,,,,,,,,,,,,,,,,,,,,,None, innate,"['i', 'n', 'n', 'a', 't', 'e', 'return']","[0.6737376999990374, 0.9699934999989637, 1.1696568999996089, 1.3706727999997383, 1.6900370999992447, 1.8659497999997257, 2.2181165000001783]",,,24,001,C,2023_Feb_08_1047,student_TT_local,2021.1.4,60.05154824905615,
,None,None,None,None,None,None,None,None,None,None,mussel,cortex,6.5,7.5,video&audio/savant_TT_3X.mp4,video&audio/sentence4_TT_3X.mp4,savant,induce,None,,,,,,,,,,,,,,,,,,,,,,,,,,,,,,,,,,,,,,,,,,,,,,,,,,,,,,,,,,,0,29,29,21,,,,,,,,,,,,,,,,,None,,,,,,,,,,,,,,,,,,,,,,,,,None, induce,"['i', 'n', 'd', 'u', 'c', 'e', 'return']","[0.7883913999994547, 1.1162681999994675, 1.4119924000005994, 1.7090009000003192, 1.9161719000003359, 2.220338699999047, 2.5320331000002625]",,,24,001,C,2023_Feb_08_1047,student_TT_local,2021.1.4,60.05154824905615,
,,,,,,,,,,,,,,,,,,,,typingRatingScale.png,"How would you rate your typing performance in the previous section?

Press a number on your keyboard according to the rating scale below to give your answer. Your first answer will be accepted.",,,,,,,,,,,,,,,,,,,,,,,,,,,,,,,,,,,,,,,,,,,,,,,,,,,,,,,,,,,,,0,0,0,0,,,,,,,,,,,,,,,,,,,,,,,,,,,,,,,,,,,,,,,,,,['4'],[5.004130999999688],24,001,C,2023_Feb_08_1047,student_TT_local,2021.1.4,60.05154824905615,
,,,,,,,,,,,,,,,,,,,,visualImageryScale.png,"While imagining yourself typing, how clear was your visual image?

Press a number on your keyboard according to the rating scale below to give your answer. Your first answer will be accepted.",,,,,,,,,,,,,,,,,,,,,,,,,,,,,,,,,,,,,,,,,,,,,,,,,,,,,,,,,,,,,0,1,1,1,,,,,,,,,,,,,,,,,,,,,,,,,,,,,,,,,,,,,,,,,,['5'],[3.52019669999936],24,001,C,2023_Feb_08_1047,student_TT_local,2021.1.4,60.05154824905615,
,,,,,,,,,,,,,,,,,,,,kinestheticImageryScale.png,"While imagining yourself typing, how intense were the sensations associated with the imagined movement?

Press a number on your keyboard according to the rating scale below to give your answer. Your first answer will be accepted.",,,,,,,,,,,,,,,,,,,,,,,,,,,,,,,,,,,,,,,,,,,,,,,,,,,,,,,,,,,,,0,2,2,2,,,,,,,,,,,,,,,,,,,,,,,,,,,,,,,,,,,,,,,,,,['4'],[5.015196000000287],24,001,C,2023_Feb_08_1047,student_TT_local,2021.1.4,60.05154824905615,
