pracWords,instr_1,instr_2,AOMI_Ima,AOMI_w,AOMI_h,practiceWords,prac_time,prac_bkgd_time,pracVid_1,pracVid_2,baseline_words,control_words,cont_time,cont_bgkd_time,first_vids,second_vids,AOMIfirst_words,AOMIsecond_words,Order,ratingScale,rateInstr,instructLoop.thisRepN,instructLoop.thisTrialN,instructLoop.thisN,instructLoop.thisIndex,practice_control.thisRepN,practice_control.thisTrialN,practice_control.thisN,practice_control.thisIndex,trials_1.thisRepN,trials_1.thisTrialN,trials_1.thisN,trials_1.thisIndex,baseRateLoop.thisRepN,baseRateLoop.thisTrialN,baseRateLoop.thisN,baseRateLoop.thisIndex,AOMIinstrLoop1.thisRepN,AOMIinstrLoop1.thisTrialN,AOMIinstrLoop1.thisN,AOMIinstrLoop1.thisIndex,AOMIpracLoop.thisRepN,AOMIpracLoop.thisTrialN,AOMIpracLoop.thisN,AOMIpracLoop.thisIndex,trials_2.thisRepN,trials_2.thisTrialN,trials_2.thisN,trials_2.thisIndex,AOMI1rateLoop.thisRepN,AOMI1rateLoop.thisTrialN,AOMI1rateLoop.thisN,AOMI1rateLoop.thisIndex,contInstrLoop.thisRepN,contInstrLoop.thisTrialN,contInstrLoop.thisN,contInstrLoop.thisIndex,contPracLoop.thisRepN,contPracLoop.thisTrialN,contPracLoop.thisN,contPracLoop.thisIndex,trials_3.thisRepN,trials_3.thisTrialN,trials_3.thisN,trials_3.thisIndex,contRateLoop.thisRepN,contRateLoop.thisTrialN,contRateLoop.thisN,contRateLoop.thisIndex,AOMIinstrLoop2.thisRepN,AOMIinstrLoop2.thisTrialN,AOMIinstrLoop2.thisN,AOMIinstrLoop2.thisIndex,AOMIpracLoop2.thisRepN,AOMIpracLoop2.thisTrialN,AOMIpracLoop2.thisN,AOMIpracLoop2.thisIndex,trials_4.thisRepN,trials_4.thisTrialN,trials_4.thisN,trials_4.thisIndex,AOMI2rateLoop.thisRepN,AOMI2rateLoop.thisTrialN,AOMI2rateLoop.thisN,AOMI2rateLoop.thisIndex,pracBkgdKeys.keys,pracKeys.keys,pracKeys.rt,baseBkgdKeys.keys,base_typedWord,baseKeys.keys,baseKeys.rt,baseBkgdKeys.rt,baseRateTypeKey.keys,baseRateTypeKey.rt,AOMI1_BkgdKeys.keys,AOMI_promptBkgdKeys.keys,AOMI1pracKeys.keys,AOMI1pracKeys.rt,AOMI1bkdgKeys.keys,AOMI1_typedWord,AOMI1keys.keys,AOMI1keys.rt,AOMI1rateTypeKey.keys,AOMI1rateTypeKey.rt,polygon_prac.started,polygon_prac.stopped,contBkgdKeys_prac.keys,contPrac_typedWord,contKeys_prac.keys,contKeys_prac.rt,polygon.started,polygon.stopped,contBkgdKeys.keys,cont_typedWord,contKeys.keys,contKeys.rt,contBkgdKeys.rt,contTypeKey.keys,contTypeKey.rt,bkgdkeys_prac2.keys,bkgdKeys4.keys,AOMI2_typedWord,keyboardCom4.keys,keyboardCom4.rt,AOMI_promptBkgdKeys.rt,AOMI2typeKey.keys,AOMI2typeKey.rt,participant,session,group,date,expName,psychopyVersion,frameRate,
replay,,,,,,,,,,,,,,,,,,,,,,,,,,0,0,0,1,,,,,,,,,,,,,,,,,,,,,,,,,,,,,,,,,,,,,,,,,,,,,,,,,,,,,,,,,None,"['r', 'e', 'p', 'l', 'a', 'y', 'return']","[0.5949622000334784, 0.7871674000052735, 1.034941100049764, 1.2832327999640256, 1.4669785000151023, 1.6831334000453353, 2.3949394000228494]",,,,,,,,,,,,,,,,,,,,,,,,,,,,,,,,,,,,,,,,,25,001,B,2023_Feb_15_1645,student_TT_local,2021.1.4,48.02273590514534,
update,,,,,,,,,,,,,,,,,,,,,,,,,,0,1,1,2,,,,,,,,,,,,,,,,,,,,,,,,,,,,,,,,,,,,,,,,,,,,,,,,,,,,,,,,,None,"['u', 'p', 'o', 'd', 's', 'a', 'e', 'backspace', 'backspace', 'backspace', 'a', 't', 'e', 'return']","[0.5692938000429422, 0.8973182000918314, 0.9054612000472844, 1.1611535000847653, 1.2810992000158876, 1.2896498000482097, 1.7851936999941245, 2.353030199999921, 2.50517400004901, 2.7611710000783205, 3.0733658000826836, 3.24946310010273, 3.385058500105515, 3.9293526000110433]",,,,,,,,,,,,,,,,,,,,,,,,,,,,,,,,,,,,,,,,,25,001,B,2023_Feb_15_1645,student_TT_local,2021.1.4,48.02273590514534,
height,,,,,,,,,,,,,,,,,,,,,,,,,,0,2,2,0,,,,,,,,,,,,,,,,,,,,,,,,,,,,,,,,,,,,,,,,,,,,,,,,,,,,,,,,,None,"['h', 'e', 'i', 'g', 'h', 't', 'return']","[0.014789200038649142, 0.24698300007730722, 0.3987072000745684, 0.6067233000649139, 0.8067426000488922, 0.9988002000609413, 1.3831612999783829]",,,,,,,,,,,,,,,,,,,,,,,,,,,,,,,,,,,,,,,,,25,001,B,2023_Feb_15_1645,student_TT_local,2021.1.4,48.02273590514534,
,None,None,None,None,None,None,None,None,None,None,zephyr,sherry,19.5,20.5,video&audio/Sentence5_touch_edited.mp4,video&audio/forage_touch_edited.mp4,fusion,forage,None,,,,,,,,,,,0,0,0,10,,,,,,,,,,,,,,,,,,,,,,,,,,,,,,,,,,,,,,,,,,,,,,,,,,,,,,,,None, zephyr,"['z', 'e', 'p', 'h', 'y', 'r', 'return']","[0.9829107000259683, 1.2946586000034586, 1.5906967000337318, 1.8306388000492007, 2.0627040000399575, 2.2468539000255987, 2.4625964999431744]",,,,,,,,,,,,,,,,,,,,,,,,,,,,,,,,,,,,,25,001,B,2023_Feb_15_1645,student_TT_local,2021.1.4,48.02273590514534,
,None,None,None,None,None,None,None,None,None,None,joiner,revolt,19.5,20.5,video&audio/Sentence6_touch_edited.mp4,video&audio/cortex_touch_edited.mp4,apathy,cortex,None,,,,,,,,,,,0,1,1,5,,,,,,,,,,,,,,,,,,,,,,,,,,,,,,,,,,,,,,,,,,,,,,,,,,,,,,,,None, joiner,"['j', 'o', 'i', 'n', 'e', 'r', 'return']","[0.6603688999311998, 0.8846394999418408, 1.124352699960582, 1.3883415999589488, 1.6607355999294668, 1.8684215999674052, 2.1246756999753416]",,,,,,,,,,,,,,,,,,,,,,,,,,,,,,,,,,,,,25,001,B,2023_Feb_15_1645,student_TT_local,2021.1.4,48.02273590514534,
,"Remember to type as QUICKLY and ACCURATELY as possible after the 'get ready' prompt.

Ask the experimenter any questions now. Please put on the headphones.

You will get one practice trial. Press 'enter/return' when you are ready to start the practice.","Remember to type as QUICKLY and ACCURATELY as you can after the 'get ready' prompt.

Ask the experimenter any questions now. Please put on the headphones.

You will get one practice trial. Press 'enter/return' when you are ready to start the practice.",video&audio/Example_AOMI_total.png,1.8,0.7,None,None,None,None,None,oppose,jargon,19.5,20.5,video&audio/Sentence3_touch_edited.mp4,video&audio/botany_touch_edited.mp4,ghetto,botany,None,,,,,,,,,,,0,2,2,2,,,,,,,,,,,,,,,,,,,,,,,,,,,,,,,,,,,,,,,,,,,,,,,,,,,,,,,,None, oppose,"['o', 'p', 'p', 'o', 's', 'e', 'return']","[0.6338229000102729, 0.8575467000482604, 1.033984399982728, 1.2578693999676034, 1.46611739997752, 1.6817346999887377, 1.9458581999642774]",,,,,,,,,,,,,,,,,,,,,,,,,,,,,,,,,,,,,25,001,B,2023_Feb_15_1645,student_TT_local,2021.1.4,48.02273590514534,
,None,None,None,None,None,None,None,None,None,None,clergy,coerce,6.5,7.5,video&audio/sentence6_TT_3X.mp4,video&audio/obsess_TT_3X.mp4,portal,obsess,None,,,,,,,,,,,0,3,3,17,,,,,,,,,,,,,,,,,,,,,,,,,,,,,,,,,,,,,,,,,,,,,,,,,,,,,,,,"['c', 'l']", clergy,"['e', 'r', 'g', 'y', 'backspace', 'backspace', 'backspace', 'backspace', 'c', 'l', 'e', 'r', 'g', 'y', 'return']","[0.01740170002449304, 0.11329500004649162, 0.43346410000231117, 0.6174064000369981, 1.5373621999751776, 1.745486699976027, 1.9455511999549344, 2.153546700021252, 2.633438799995929, 2.849426500033587, 3.0333968000486493, 3.2257239000173286, 3.5054130000062287, 3.681397099979222, 4.153533300035633]","[2.6683558999793604, 2.8364212999586016]",,,,,,,,,,,,,,,,,,,,,,,,,,,,,,,,,,,,25,001,B,2023_Feb_15_1645,student_TT_local,2021.1.4,48.02273590514534,
,None,None,None,None,None,None,None,None,None,None,mangle,satire,6.5,7.5,video&audio/sentence1_TT_3X.mp4,video&audio/ritual_TT_3X.mp4,warble,ritual,None,,,,,,,,,,,0,4,4,24,,,,,,,,,,,,,,,,,,,,,,,,,,,,,,,,,,,,,,,,,,,,,,,,,,,,,,,,None, mangle,"['m', 'a', 'n', 'g', 'l', 'e', 'return']","[0.8586094999918714, 1.1386445000534877, 1.3706795000471175, 1.7147007000166923, 1.9626924999756739, 2.1706902000587434, 2.6426688000792637]",,,,,,,,,,,,,,,,,,,,,,,,,,,,,,,,,,,,,25,001,B,2023_Feb_15_1645,student_TT_local,2021.1.4,48.02273590514534,
,None,None,None,None,None,None,None,None,None,None,shrewd,mirage,19.5,20.5,video&audio/Sentence1_touch_edited.mp4,video&audio/covert_touch_edited.mp4,revoke,covert,None,,,,,,,,,,,0,5,5,6,,,,,,,,,,,,,,,,,,,,,,,,,,,,,,,,,,,,,,,,,,,,,,,,,,,,,,,,None, shrewed,"['s', 'h', 'r', 'e', 'w', 'e', 'd', 'return']","[0.6357362000271678, 1.763780300039798, 1.9957527000224218, 2.203737700008787, 2.411765099968761, 2.6360449000494555, 2.8279560999944806, 3.067721400060691]",,,,,,,,,,,,,,,,,,,,,,,,,,,,,,,,,,,,,25,001,B,2023_Feb_15_1645,student_TT_local,2021.1.4,48.02273590514534,
,None,None,None,None,None,None,None,None,None,None,befall,goblet,19.5,20.5,video&audio/Sentence3_touch_edited.mp4,video&audio/devise_touch_edited.mp4,ration,devise,None,,,,,,,,,,,0,6,6,8,,,,,,,,,,,,,,,,,,,,,,,,,,,,,,,,,,,,,,,,,,,,,,,,,,,,,,,,None, befall,"['b', 'e', 'f', 'a', 'l', 'l', 'return']","[1.0072560000699013, 1.230564600089565, 1.4707868000259623, 1.7105684999842197, 1.982585999998264, 2.1586712000425905, 2.4307070000795648]",,,,,,,,,,,,,,,,,,,,,,,,,,,,,,,,,,,,,25,001,B,2023_Feb_15_1645,student_TT_local,2021.1.4,48.02273590514534,
,None,None,None,None,None,None,None,None,None,None,primal,novice,19.5,20.5,video&audio/Sentence5_touch_edited.mp4,video&audio/confer_touch_edited.mp4,entail,confer,None,,,,,,,,,,,0,7,7,4,,,,,,,,,,,,,,,,,,,,,,,,,,,,,,,,,,,,,,,,,,,,,,,,,,,,,,,,None, primal,"['p', 'r', 'i', 'm', 'a', 'l', 'return']","[0.6241604000097141, 0.8402166999876499, 1.0239039999432862, 1.2401032999623567, 1.4562532999552786, 1.6800592000363395, 2.024006800027564]",,,,,,,,,,,,,,,,,,,,,,,,,,,,,,,,,,,,,25,001,B,2023_Feb_15_1645,student_TT_local,2021.1.4,48.02273590514534,
,None,None,None,None,None,None,None,None,None,None,parish,upkeep,6.5,7.5,video&audio/sentence5_TT_3X.mp4,video&audio/tariff_TT_3X.mp4,gullet,tariff,None,,,,,,,,,,,0,8,8,28,,,,,,,,,,,,,,,,,,,,,,,,,,,,,,,,,,,,,,,,,,,,,,,,,,,,,,,,None, parish,"['p', 'a', 'r', 'i', 's', 'h', 'return']","[0.5982200000435114, 0.8544115000404418, 1.1264821999939159, 1.3580977000528947, 1.5262593999505043, 1.7180756999878213, 2.238278800039552]",,,,,,,,,,,,,,,,,,,,,,,,,,,,,,,,,,,,,25,001,B,2023_Feb_15_1645,student_TT_local,2021.1.4,48.02273590514534,
,None,None,None,None,None,None,None,None,None,None,jailer,deduct,6.5,7.5,video&audio/sentence5_TT_3X.mp4,video&audio/neural_TT_3X.mp4,nettle,neural,None,,,,,,,,,,,0,9,9,16,,,,,,,,,,,,,,,,,,,,,,,,,,,,,,,,,,,,,,,,,,,,,,,,,,,,,,,,None, jailer,"['j', 'a', 'i', 'l', 'e', 'r', 'return']","[0.8745617000386119, 1.1063613999867812, 1.290449499967508, 1.5144469999941066, 1.7703721000580117, 2.026334800058976, 2.394410700071603]",,,,,,,,,,,,,,,,,,,,,,,,,,,,,,,,,,,,,25,001,B,2023_Feb_15_1645,student_TT_local,2021.1.4,48.02273590514534,
,None,None,None,None,None,None,None,None,None,None,hearth,sonnet,19.5,20.5,video&audio/Sentence3_touch_edited.mp4,video&audio/kipper_touch_edited.mp4,herbal,kipper,None,,,,,,,,,,,0,10,10,14,,,,,,,,,,,,,,,,,,,,,,,,,,,,,,,,,,,,,,,,,,,,,,,,,,,,,,,,None, hearth,"['h', 'e', 'a', 'r', 't', 'h', 'return']","[0.6020409999182448, 0.8497398999752477, 1.0578562999144197, 1.2419496999355033, 1.4257072999607772, 1.6337005000095814, 1.978101299959235]",,,,,,,,,,,,,,,,,,,,,,,,,,,,,,,,,,,,,25,001,B,2023_Feb_15_1645,student_TT_local,2021.1.4,48.02273590514534,
,None,None,None,None,None,None,None,None,None,None,septic,quarry,19.5,20.5,video&audio/Sentence2_touch_edited.mp4,video&audio/jackal_touch_edited.mp4,ordain,jackal,None,,,,,,,,,,,0,11,11,13,,,,,,,,,,,,,,,,,,,,,,,,,,,,,,,,,,,,,,,,,,,,,,,,,,,,,,,,None, septic,"['s', 'p', 't', 'i', 'backspace', 'backspace', 'backspace', 'e', 'p', 't', 'i', 'c', 'return']","[0.5412466999841854, 0.7491781000280753, 1.2216084999963641, 1.6932534000370651, 2.293587199994363, 2.4532319999998435, 2.6772470000432804, 3.037434700061567, 3.2214161000447348, 3.381369600072503, 3.5733817000873387, 3.7576956000411883, 4.301207700045779]",,,,,,,,,,,,,,,,,,,,,,,,,,,,,,,,,,,,,25,001,B,2023_Feb_15_1645,student_TT_local,2021.1.4,48.02273590514534,
,None,None,None,None,None,None,None,None,None,None,hamlet,parole,19.5,20.5,video&audio/Sentence4_touch_edited.mp4,video&audio/falter_touch_edited.mp4,shroud,falter,None,,,,,,,,,,,0,12,12,9,,,,,,,,,,,,,,,,,,,,,,,,,,,,,,,,,,,,,,,,,,,,,,,,,,,,,,,,None, hamlet,"['h', 'a', 'm', 'l', 'e', 't', 'return']","[0.4538383000763133, 0.669876900035888, 0.8699619000544772, 1.1738481000065804, 1.3098529999842867, 1.502207100042142, 1.8618814999936149]",,,,,,,,,,,,,,,,,,,,,,,,,,,,,,,,,,,,,25,001,B,2023_Feb_15_1645,student_TT_local,2021.1.4,48.02273590514534,
,None,None,None,None,None,None,None,None,None,None,induce,savant,6.5,7.5,video&audio/sentence4_TT_3X.mp4,video&audio/plasma_TT_3X.mp4,mussel,plasma,None,,,,,,,,,,,0,13,13,21,,,,,,,,,,,,,,,,,,,,,,,,,,,,,,,,,,,,,,,,,,,,,,,,,,,,,,,,None, induce,"['i', 'n', 'd', 'u', 'c', 'e', 'return']","[0.5833968999795616, 0.7997618999797851, 1.0154037000611424, 1.1354425000026822, 1.2553932999726385, 1.3674475000007078, 1.9435222999891266]",,,,,,,,,,,,,,,,,,,,,,,,,,,,,,,,,,,,,25,001,B,2023_Feb_15_1645,student_TT_local,2021.1.4,48.02273590514534,
,None,None,None,None,None,None,None,None,None,None,trench,fodder,6.5,7.5,video&audio/sentence4_TT_3X.mp4,video&audio/subtle_TT_3X.mp4,ethnic,subtle,None,,,,,,,,,,,0,14,14,27,,,,,,,,,,,,,,,,,,,,,,,,,,,,,,,,,,,,,,,,,,,,,,,,,,,,,,,,None, trench,"['t', 'r', 'e', 'n', 'c', 'h', 'return']","[0.648155500064604, 0.8641115000937134, 0.9282161000883207, 1.1601690000388771, 1.2961320000467822, 1.4243591000558808, 2.0005700000328943]",,,,,,,,,,,,,,,,,,,,,,,,,,,,,,,,,,,,,25,001,B,2023_Feb_15_1645,student_TT_local,2021.1.4,48.02273590514534,
,"While you watch the video, imagine yourself typing the word on the screen, like how you did in the imagery practice. While you watch the video and imagine this, rest your hands on your keyboard but DO NOT type until AFTER you see the typing prompt.

Press 'enter/return' to go to the next page.","While watching the video, imagine yourself typing the word on the screen, like how you did in the imagery practice. While you watch the video and imagine this, rest your hands on your keyboard but DO NOT type until AFTER you see the typing prompt.

Press 'enter/return' to go to the next page.",video&audio/Example_AOMI_imagine.png,1.6,1,butter,6.5,7.5,video&audio/amount_TT_3X.mp4,video&audio/butter_TT_3X.mp4,metric,plight,19.5,20.5,video&audio/Sentence2_touch_edited.mp4,video&audio/belfry_touch_edited.mp4,eatery,belfry,2 = AOMIspec,,,,,,,,,,,0,15,15,1,,,,,,,,,,,,,,,,,,,,,,,,,,,,,,,,,,,,,,,,,,,,,,,,,,,,,,,,None, metric,"['m', 'e', 't', 'r', 'i', 'c', 'return']","[0.40741139999590814, 0.6552502000704408, 0.8873124000383541, 1.0077678000088781, 1.1833291000220925, 1.3355099000036716, 1.9037343000527471]",,,,,,,,,,,,,,,,,,,,,,,,,,,,,,,,,,,,,25,001,B,2023_Feb_15_1645,student_TT_local,2021.1.4,48.02273590514534,
,None,None,None,None,None,None,None,None,None,None,delude,strife,19.5,20.5,video&audio/Sentence2_touch_edited.mp4,video&audio/debtor_touch_edited.mp4,galley,debtor,None,,,,,,,,,,,0,16,16,7,,,,,,,,,,,,,,,,,,,,,,,,,,,,,,,,,,,,,,,,,,,,,,,,,,,,,,,,None, delude,"['d', 'e', 'l', 'u', 'd', 'e', 'return']","[0.568975199945271, 0.7769617999438196, 0.9369534000288695, 1.1448620000155643, 1.2731713999528438, 1.3531045999843627, 1.7770149999996647]",,,,,,,,,,,,,,,,,,,,,,,,,,,,,,,,,,,,,25,001,B,2023_Feb_15_1645,student_TT_local,2021.1.4,48.02273590514534,
,None,None,None,None,None,None,None,None,None,None,campus,legion,6.5,7.5,video&audio/sentence6_TT_3X.mp4,video&audio/virile_TT_3X.mp4,allure,virile,None,,,,,,,,,,,0,17,17,29,,,,,,,,,,,,,,,,,,,,,,,,,,,,,,,,,,,,,,,,,,,,,,,,,,,,,,,,None, campus,"['c', 'a', 'm', 'p', 'u', 's', 'return']","[0.5122713999589905, 0.7202978000277653, 0.8800990999443457, 1.0407756000058725, 1.2881631000200287, 1.4002734000096098, 1.9282888999441639]",,,,,,,,,,,,,,,,,,,,,,,,,,,,,,,,,,,,,25,001,B,2023_Feb_15_1645,student_TT_local,2021.1.4,48.02273590514534,
,None,None,None,None,None,None,None,None,None,None,meddle,musket,6.5,7.5,video&audio/sentence2_TT_3X.mp4,video&audio/solemn_TT_3X.mp4,divert,solemn,None,,,,,,,,,,,0,18,18,25,,,,,,,,,,,,,,,,,,,,,,,,,,,,,,,,,,,,,,,,,,,,,,,,,,,,,,,,None, meddle,"['m', 'e', 'd', 'd', 'l', 'e', 'return']","[0.7276687000412494, 0.8957462999969721, 1.0959035999840125, 1.2397303000325337, 1.3601574000203982, 1.4798663000110537, 1.8716557000298053]",,,,,,,,,,,,,,,,,,,,,,,,,,,,,,,,,,,,,25,001,B,2023_Feb_15_1645,student_TT_local,2021.1.4,48.02273590514534,
,None,None,None,None,None,None,None,None,None,None,caviar,pursue,6.5,7.5,video&audio/sentence3_TT_3X.mp4,video&audio/piston_TT_3X.mp4,shrill,piston,None,,,,,,,,,,,0,19,19,20,,,,,,,,,,,,,,,,,,,,,,,,,,,,,,,,,,,,,,,,,,,,,,,,,,,,,,,,None, caviar,"['c', 'a', 'v', 'i', 'e', 'r', 'equal', 'equal', 'a', 'backspace', 'backspace', 'backspace', 'backspace', 'backspace', 'a', 'r', 'return']","[0.4751301999203861, 0.7070346999680623, 0.9871302000246942, 1.211167600005865, 1.3870981999207288, 1.4511676999973133, 1.9071184999775141, 2.0591537000145763, 2.163479399983771, 2.387100499938242, 2.5714837999548763, 2.7155179999535903, 2.8671458999160677, 3.09953000000678, 3.251149100018665, 3.347121699946001, 3.891435099998489]",,,,,,,,,,,,,,,,,,,,,,,,,,,,,,,,,,,,,25,001,B,2023_Feb_15_1645,student_TT_local,2021.1.4,48.02273590514534,
,None,None,None,None,None,None,None,None,None,None,innate,critic,19.5,20.5,video&audio/Sentence1_touch_edited.mp4,video&audio/hippie_touch_edited.mp4,tamper,hippie,None,,,,,,,,,,,0,20,20,12,,,,,,,,,,,,,,,,,,,,,,,,,,,,,,,,,,,,,,,,,,,,,,,,,,,,,,,,None, innate,"['i', 'n', 'n', 'a', 't', 'e', 'return']","[0.6917874999344349, 0.90828249999322, 1.0759767999406904, 1.2597868000157177, 1.4038399999262765, 1.5397357000038028, 2.0277546999277547]",,,,,,,,,,,,,,,,,,,,,,,,,,,,,,,,,,,,,25,001,B,2023_Feb_15_1645,student_TT_local,2021.1.4,48.02273590514534,
,None,None,None,None,None,None,None,None,None,None,oblige,infirm,19.5,20.5,video&audio/Sentence4_touch_edited.mp4,video&audio/cervix_touch_edited.mp4,mystic,cervix,None,,,,,,,,,,,0,21,21,3,,,,,,,,,,,,,,,,,,,,,,,,,,,,,,,,,,,,,,,,,,,,,,,,,,,,,,,,None, oblige,"['o', 'b', 'l', 'i', 'g', 'e', 'return']","[0.4332255000481382, 0.6330617000348866, 0.7614232000196353, 0.9529670000774786, 1.097036899998784, 1.3210033000214025, 1.9693667000392452]",,,,,,,,,,,,,,,,,,,,,,,,,,,,,,,,,,,,,25,001,B,2023_Feb_15_1645,student_TT_local,2021.1.4,48.02273590514534,
,None,None,None,None,None,None,None,None,None,None,tandem,potent,6.5,7.5,video&audio/sentence4_TT_3X.mp4,video&audio/malady_TT_3X.mp4,origin,malady,None,,,,,,,,,,,0,22,22,15,,,,,,,,,,,,,,,,,,,,,,,,,,,,,,,,,,,,,,,,,,,,,,,,,,,,,,,,None, tandem,"['t', 'a', 'n', 'd', 'e', 'm', 'return']","[0.5634946000063792, 0.883284299983643, 1.0112839000066742, 1.171242699958384, 1.3316147999139503, 1.4513039999874309, 1.971473400015384]",,,,,,,,,,,,,,,,,,,,,,,,,,,,,,,,,,,,,25,001,B,2023_Feb_15_1645,student_TT_local,2021.1.4,48.02273590514534,
,None,None,None,None,None,None,None,None,None,None,output,convoy,6.5,7.5,video&audio/sentence1_TT_3X.mp4,video&audio/parcel_TT_3X.mp4,uphold,parcel,None,,,,,,,,,,,0,23,23,18,,,,,,,,,,,,,,,,,,,,,,,,,,,,,,,,,,,,,,,,,,,,,,,,,,,,,,,,None, output,"['o', 'u', 't', 'p', 'u', 't', 'return']","[0.6390096000395715, 0.879009100026451, 1.0470149000175297, 1.1989286000607535, 1.4310454999795184, 1.5270381000591442, 2.0151095000328496]",,,,,,,,,,,,,,,,,,,,,,,,,,,,,,,,,,,,,25,001,B,2023_Feb_15_1645,student_TT_local,2021.1.4,48.02273590514534,
,None,None,None,None,None,None,None,None,None,None,cobble,murmur,6.5,7.5,video&audio/sentence2_TT_3X.mp4,video&audio/picket_TT_3X.mp4,export,picket,None,,,,,,,,,,,0,24,24,19,,,,,,,,,,,,,,,,,,,,,,,,,,,,,,,,,,,,,,,,,,,,,,,,,,,,,,,,None, cobble,"['c', 'o', 'b', 'b', 'l', 'e', 'return']","[0.5929713000077754, 0.7450036000227556, 0.9209420999977738, 1.0570515000727028, 1.1770140000153333, 1.3051195000298321, 1.9131468000123277]",,,,,,,,,,,,,,,,,,,,,,,,,,,,,,,,,,,,,25,001,B,2023_Feb_15_1645,student_TT_local,2021.1.4,48.02273590514534,
,None,None,None,None,None,None,None,None,None,None,feudal,impose,6.5,7.5,video&audio/sentence3_TT_3X.mp4,video&audio/subdue_TT_3X.mp4,matron,subdue,None,,,,,,,,,,,0,25,25,26,,,,,,,,,,,,,,,,,,,,,,,,,,,,,,,,,,,,,,,,,,,,,,,,,,,,,,,,['f'], feudal,"['u', 'd', 'a', 'backspace', 'backspace', 'backspace', 'backspace', 'f', 'e', 'u', 'd', 'a', 'l', 'return']","[0.2434350000694394, 0.38753209996502846, 0.4994365000165999, 1.5081647000042722, 1.6676229999866337, 1.8201659000478685, 1.9794307000702247, 2.4994365000166, 2.771506799967028, 2.9153807000257075, 3.091663100058213, 3.5637151000555605, 3.8356316999997944, 4.11533329996746]",[2.780487700016238],,,,,,,,,,,,,,,,,,,,,,,,,,,,,,,,,,,,25,001,B,2023_Feb_15_1645,student_TT_local,2021.1.4,48.02273590514534,
,None,None,None,None,None,None,None,None,None,None,fungal,brazen,6.5,7.5,video&audio/sentence5_TT_3X.mp4,video&audio/matrix_TT_3X.mp4,mucous,matrix,None,,,,,,,,,,,0,26,26,22,,,,,,,,,,,,,,,,,,,,,,,,,,,,,,,,,,,,,,,,,,,,,,,,,,,,,,,,None, fungal,"['f', 'u', 'n', 'g', 'a', 'l', 'return']","[0.7816348999040201, 0.9976509999250993, 1.1094875999260694, 1.269670799956657, 1.461447999929078, 1.5975239999825135, 2.1415103999897838]",,,,,,,,,,,,,,,,,,,,,,,,,,,,,,,,,,,,,25,001,B,2023_Feb_15_1645,student_TT_local,2021.1.4,48.02273590514534,
,None,None,None,None,None,None,None,None,None,None,patent,binder,19.5,20.5,video&audio/Sentence6_touch_edited.mp4,video&audio/frugal_touch_edited.mp4,defame,frugal,None,,,,,,,,,,,0,27,27,11,,,,,,,,,,,,,,,,,,,,,,,,,,,,,,,,,,,,,,,,,,,,,,,,,,,,,,,,None, patent,"['p', 'a', 't', 'e', 'n', 't', 'return']","[0.7146441000513732, 0.9225803000153974, 1.1626636000582948, 1.3308252000715584, 1.4665505000157282, 1.5785334000829607, 2.2346018000971526]",,,,,,,,,,,,,,,,,,,,,,,,,,,,,,,,,,,,,25,001,B,2023_Feb_15_1645,student_TT_local,2021.1.4,48.02273590514534,
,None,None,None,None,None,None,None,None,None,None,girdle,manure,6.5,7.5,video&audio/sentence6_TT_3X.mp4,video&audio/pulpit_TT_3X.mp4,linear,pulpit,None,,,,,,,,,,,0,28,28,23,,,,,,,,,,,,,,,,,,,,,,,,,,,,,,,,,,,,,,,,,,,,,,,,,,,,,,,,None, girdle,"['g', 'i', 'r', 'd', 'l', 'e', 'return']","[0.4159274999983609, 0.6395522999810055, 0.8318523999769241, 1.039760100073181, 1.1756784999743104, 1.29558390006423, 1.7754877000115812]",,,,,,,,,,,,,,,,,,,,,,,,,,,,,,,,,,,,,25,001,B,2023_Feb_15_1645,student_TT_local,2021.1.4,48.02273590514534,
,"This is Section 2.

In this section, your task will be the same as before - that is, to type the word you see on the screen AFTER the typing prompt. However, rather than just seeing the word before typing, you will also see a video of someone typing different words to what you will need to type at different speeds. 

Press 'enter/return' to go to the next page.","This is Section 4. 

In this section, your task will be the same as before - that is, to type the word you see on the screen after the typing prompt. You will see a video again, like in Section 2, only this time, the video will show someone the same word that you must type at different speeds. 

Press 'enter/return' to go to the next page.",video&audio/Example_AOMI_layout.png,1.6,0.6,afford,19.5,20.5,video&audio/amount_touch_edited.mp4,video&audio/afford_touch_edited.mp4,hinder,vanity,19.5,20.5,video&audio/Sentence1_touch_edited.mp4,video&audio/ascend_touch_edited.mp4,breach,ascend,1 = AOMIgen,,,,,,,,,,,0,29,29,0,,,,,,,,,,,,,,,,,,,,,,,,,,,,,,,,,,,,,,,,,,,,,,,,,,,,,,,,None, hinder,"['h', 'i', 'n', 'd', 'e', 'r', 'return']","[0.5347581000532955, 0.7348065000260249, 0.8147634000051767, 0.958773700054735, 1.11076489998959, 1.2070617999415845, 1.6627205000258982]",,,,,,,,,,,,,,,,,,,,,,,,,,,,,,,,,,,,,25,001,B,2023_Feb_15_1645,student_TT_local,2021.1.4,48.02273590514534,
,,,,,,,,,,,,,,,,,,,,typingRatingScale.png,"How would you rate your typing performance in the previous section?

Press a number on your keyboard according to the rating scale below to give your answer. Your first answer will be accepted.",,,,,,,,,,,,,0,0,0,0,,,,,,,,,,,,,,,,,,,,,,,,,,,,,,,,,,,,,,,,,,,,,,,,,,,,,,,,,['4'],[22.00409539998509],,,,,,,,,,,,,,,,,,,,,,,,,,,,,,,,,,25,001,B,2023_Feb_15_1645,student_TT_local,2021.1.4,48.02273590514534,
,,,,,,,,,,,,,,,,,,,,imageryCheckScale.png,"In the previous section did you imagine yourself typing?

Press a number on your keyboard according to the rating scale below to give your answer. Your first answer will be accepted.",,,,,,,,,,,,,0,1,1,1,,,,,,,,,,,,,,,,,,,,,,,,,,,,,,,,,,,,,,,,,,,,,,,,,,,,,,,,,['4'],[16.35072400001809],,,,,,,,,,,,,,,,,,,,,,,,,,,,,,,,,,25,001,B,2023_Feb_15_1645,student_TT_local,2021.1.4,48.02273590514534,
,"While you watch the video, imagine yourself typing the word on the screen, like how you did in the imagery practice. While you watch the video and imagine this, rest your hands on your keyboard but DO NOT type until AFTER you see the typing prompt.

Press 'enter/return' to go to the next page.","While watching the video, imagine yourself typing the word on the screen, like how you did in the imagery practice. While you watch the video and imagine this, rest your hands on your keyboard but DO NOT type until AFTER you see the typing prompt.

Press 'enter/return' to go to the next page.",video&audio/Example_AOMI_imagine.png,1.6,1,butter,6.5,7.5,video&audio/amount_TT_3X.mp4,video&audio/butter_TT_3X.mp4,metric,plight,19.5,20.5,video&audio/Sentence2_touch_edited.mp4,video&audio/belfry_touch_edited.mp4,eatery,belfry,2 = AOMIspec,,,,,,,,,,,,,,,,,,,,,,,,,,,0,0,0,1,,,,,,,,,,,,,,,,,,,,,,,,,,,,,,,,,,,,,,,,,,,,,,,None,None,"['b', 'u', 't', 't', 'r', 'backspace', 'e', 'r', 'return']","[0.7137189999921247, 1.0015265999827534, 1.2499345999676734, 1.4096343000419438, 1.6335996999405324, 2.017734599998221, 2.1856120999436826, 2.258071899996139, 2.4898343000095338]",None, eatery,"['e', 'a', 't', 'e', 'r', 'y', 'return']","[1.10006169998087, 1.3160354999126866, 1.5723719999659806, 1.7804294999223202, 1.892238499945961, 2.0839258999330923, 2.860084499930963]",,,,,,,,,,,,,,,,,,,,,,,,,,25,001,B,2023_Feb_15_1645,student_TT_local,2021.1.4,48.02273590514534,
,None,None,None,None,None,None,None,None,None,None,shrewd,mirage,19.5,20.5,video&audio/Sentence1_touch_edited.mp4,video&audio/covert_touch_edited.mp4,revoke,covert,None,,,,,,,,,,,,,,,,,,,,,,,,,,,0,1,1,6,,,,,,,,,,,,,,,,,,,,,,,,,,,,,,,,,,,,,,,,,,,,,,,,None,,,None, revoke,"['r', 'e', 'v', 'o', 'k', 'e', 'return']","[1.0222834999440238, 1.262294799904339, 1.5507442998932675, 1.7501311999512836, 1.8540864998940378, 2.070858799968846, 2.542102099978365]",,,,,,,,,,,,,,,,,,,,,,,,,,25,001,B,2023_Feb_15_1645,student_TT_local,2021.1.4,48.02273590514534,
,None,None,None,None,None,None,None,None,None,None,meddle,musket,6.5,7.5,video&audio/sentence2_TT_3X.mp4,video&audio/solemn_TT_3X.mp4,divert,solemn,None,,,,,,,,,,,,,,,,,,,,,,,,,,,0,2,2,25,,,,,,,,,,,,,,,,,,,,,,,,,,,,,,,,,,,,,,,,,,,,,,,,None,,,None, divert,"['d', 'i', 'v', 'e', 'r', 't', 'return']","[0.8808220999781042, 1.1209184000035748, 1.2807134999893606, 1.529131400049664, 1.6407514000311494, 1.880781100015156, 2.1367555999895558]",,,,,,,,,,,,,,,,,,,,,,,,,,25,001,B,2023_Feb_15_1645,student_TT_local,2021.1.4,48.02273590514534,
,None,None,None,None,None,None,None,None,None,None,oblige,infirm,19.5,20.5,video&audio/Sentence4_touch_edited.mp4,video&audio/cervix_touch_edited.mp4,mystic,cervix,None,,,,,,,,,,,,,,,,,,,,,,,,,,,0,3,3,3,,,,,,,,,,,,,,,,,,,,,,,,,,,,,,,,,,,,,,,,,,,,,,,,None,,,None, mystic,"['m', 'y', 's', 't', 'i', 'c', 'return']","[0.8912673000013456, 1.2275096999946982, 1.5552405000198632, 1.8201219000620767, 1.9714526000898331, 2.1314553000265732, 2.443432900006883]",,,,,,,,,,,,,,,,,,,,,,,,,,25,001,B,2023_Feb_15_1645,student_TT_local,2021.1.4,48.02273590514534,
,None,None,None,None,None,None,None,None,None,None,jailer,deduct,6.5,7.5,video&audio/sentence5_TT_3X.mp4,video&audio/neural_TT_3X.mp4,nettle,neural,None,,,,,,,,,,,,,,,,,,,,,,,,,,,0,4,4,16,,,,,,,,,,,,,,,,,,,,,,,,,,,,,,,,,,,,,,,,,,,,,,,,None,,,None, nettle,"['n', 'e', 't', 't', 'l', 'e', 'return']","[0.7254546000622213, 0.9015100999968126, 1.1094726000446826, 1.2536264000227675, 1.3973523000022396, 1.5096121000824496, 1.805482399999164]",,,,,,,,,,,,,,,,,,,,,,,,,,25,001,B,2023_Feb_15_1645,student_TT_local,2021.1.4,48.02273590514534,
,None,None,None,None,None,None,None,None,None,None,induce,savant,6.5,7.5,video&audio/sentence4_TT_3X.mp4,video&audio/plasma_TT_3X.mp4,mussel,plasma,None,,,,,,,,,,,,,,,,,,,,,,,,,,,0,5,5,21,,,,,,,,,,,,,,,,,,,,,,,,,,,,,,,,,,,,,,,,,,,,,,,,None,,,None, mussel,"['m', 'u', 's', 's', 'e', 'l', 'return']","[0.5605527000734583, 0.8724938000086695, 1.1281767999753356, 1.2885762000223622, 1.5041613000212237, 1.6803477000212297, 2.3204322999808937]",,,,,,,,,,,,,,,,,,,,,,,,,,25,001,B,2023_Feb_15_1645,student_TT_local,2021.1.4,48.02273590514534,
,None,None,None,None,None,None,None,None,None,None,befall,goblet,19.5,20.5,video&audio/Sentence3_touch_edited.mp4,video&audio/devise_touch_edited.mp4,ration,devise,None,,,,,,,,,,,,,,,,,,,,,,,,,,,0,6,6,8,,,,,,,,,,,,,,,,,,,,,,,,,,,,,,,,,,,,,,,,,,,,,,,,None,,,None, ration,"['r', 'a', 't', 'i', 'o', 'n', 'return']","[0.6126938000088558, 1.0046592999715358, 1.26889919990208, 1.4528749999590218, 1.5009497000137344, 1.7246871999232098, 2.3889935999177396]",,,,,,,,,,,,,,,,,,,,,,,,,,25,001,B,2023_Feb_15_1645,student_TT_local,2021.1.4,48.02273590514534,
,None,None,None,None,None,None,None,None,None,None,clergy,coerce,6.5,7.5,video&audio/sentence6_TT_3X.mp4,video&audio/obsess_TT_3X.mp4,portal,obsess,None,,,,,,,,,,,,,,,,,,,,,,,,,,,0,7,7,17,,,,,,,,,,,,,,,,,,,,,,,,,,,,,,,,,,,,,,,,,,,,,,,,None,,,None, portal,"['p', 'o', 'r', 't', 'a', 'l', 'return']","[0.8190526000689715, 1.0351400000508875, 1.2351337999571115, 1.4110758999595419, 1.6190439000492916, 1.7794020000146702, 2.3230371000245214]",,,,,,,,,,,,,,,,,,,,,,,,,,25,001,B,2023_Feb_15_1645,student_TT_local,2021.1.4,48.02273590514534,
,None,None,None,None,None,None,None,None,None,None,fungal,brazen,6.5,7.5,video&audio/sentence5_TT_3X.mp4,video&audio/matrix_TT_3X.mp4,mucous,matrix,None,,,,,,,,,,,,,,,,,,,,,,,,,,,0,8,8,22,,,,,,,,,,,,,,,,,,,,,,,,,,,,,,,,,,,,,,,,,,,,,,,,None,,,None, mucous,"['m', 'u', 'c', 'o', 'u', 's', 'return']","[0.6873457999899983, 0.9595911999931559, 1.3275603000074625, 1.4557778000598773, 1.5355192000279203, 1.6875367000466213, 2.2075787000358105]",,,,,,,,,,,,,,,,,,,,,,,,,,25,001,B,2023_Feb_15_1645,student_TT_local,2021.1.4,48.02273590514534,
,None,None,None,None,None,None,None,None,None,None,parish,upkeep,6.5,7.5,video&audio/sentence5_TT_3X.mp4,video&audio/tariff_TT_3X.mp4,gullet,tariff,None,,,,,,,,,,,,,,,,,,,,,,,,,,,0,9,9,28,,,,,,,,,,,,,,,,,,,,,,,,,,,,,,,,,,,,,,,,,,,,,,,,None,,,None, gullet,"['g', 'u', 'l', 'l', 'e', 't', 'return']","[0.5283582000993192, 0.7117020000005141, 0.9437565000262111, 1.071933600003831, 1.223715600091964, 1.3519016000209376, 1.7364172000670806]",,,,,,,,,,,,,,,,,,,,,,,,,,25,001,B,2023_Feb_15_1645,student_TT_local,2021.1.4,48.02273590514534,
,None,None,None,None,None,None,None,None,None,None,output,convoy,6.5,7.5,video&audio/sentence1_TT_3X.mp4,video&audio/parcel_TT_3X.mp4,uphold,parcel,None,,,,,,,,,,,,,,,,,,,,,,,,,,,0,10,10,18,,,,,,,,,,,,,,,,,,,,,,,,,,,,,,,,,,,,,,,,,,,,,,,,None,,,None, uphold,"['u', 'p', 'h', 'o', 'l', 'd', 'return']","[0.5392361000413075, 0.7548878999659792, 1.0271283000474796, 1.13084150000941, 1.3388412999920547, 1.4992492999881506, 2.075025700032711]",,,,,,,,,,,,,,,,,,,,,,,,,,25,001,B,2023_Feb_15_1645,student_TT_local,2021.1.4,48.02273590514534,
,None,None,None,None,None,None,None,None,None,None,hamlet,parole,19.5,20.5,video&audio/Sentence4_touch_edited.mp4,video&audio/falter_touch_edited.mp4,shroud,falter,None,,,,,,,,,,,,,,,,,,,,,,,,,,,0,11,11,9,,,,,,,,,,,,,,,,,,,,,,,,,,,,,,,,,,,,,,,,,,,,,,,,None,,,None, shroud,"['s', 'h', 'r', 'o', 'u', 'd', 'return']","[0.7931478000245988, 0.9851713000098243, 1.193128600018099, 1.3218053999589756, 1.441268999944441, 1.6253241000231355, 1.857150699943304]",,,,,,,,,,,,,,,,,,,,,,,,,,25,001,B,2023_Feb_15_1645,student_TT_local,2021.1.4,48.02273590514534,
,None,None,None,None,None,None,None,None,None,None,campus,legion,6.5,7.5,video&audio/sentence6_TT_3X.mp4,video&audio/virile_TT_3X.mp4,allure,virile,None,,,,,,,,,,,,,,,,,,,,,,,,,,,0,12,12,29,,,,,,,,,,,,,,,,,,,,,,,,,,,,,,,,,,,,,,,,,,,,,,,,None,,,None, allure,"['a', 'l', 'l', 'u', 'r', 'e', 'return']","[0.7949095999356359, 0.9710246999748051, 1.114846199983731, 1.3631333999801427, 1.5076889999909326, 1.586987999966368, 1.8835383999394253]",,,,,,,,,,,,,,,,,,,,,,,,,,25,001,B,2023_Feb_15_1645,student_TT_local,2021.1.4,48.02273590514534,
,None,None,None,None,None,None,None,None,None,None,innate,critic,19.5,20.5,video&audio/Sentence1_touch_edited.mp4,video&audio/hippie_touch_edited.mp4,tamper,hippie,None,,,,,,,,,,,,,,,,,,,,,,,,,,,0,13,13,12,,,,,,,,,,,,,,,,,,,,,,,,,,,,,,,,,,,,,,,,,,,,,,,,None,,,None, tamper,"['t', 'a', 'm', 'p', 'e', 'r', 'return']","[0.7618858000496402, 1.0338685000315309, 1.4817186000291258, 1.5857399000087753, 1.801762800081633, 1.8420465000672266, 2.3778368000639603]",,,,,,,,,,,,,,,,,,,,,,,,,,25,001,B,2023_Feb_15_1645,student_TT_local,2021.1.4,48.02273590514534,
,None,None,None,None,None,None,None,None,None,None,feudal,impose,6.5,7.5,video&audio/sentence3_TT_3X.mp4,video&audio/subdue_TT_3X.mp4,matron,subdue,None,,,,,,,,,,,,,,,,,,,,,,,,,,,0,14,14,26,,,,,,,,,,,,,,,,,,,,,,,,,,,,,,,,,,,,,,,,,,,,,,,,None,,,None, matron,"['m', 'a', 't', 'r', 'o', 'n', 'return']","[0.6232075999723747, 0.7747966999886557, 1.0149597000563517, 1.1348625000100583, 1.2790870000608265, 1.3670727000571787, 1.7107589000370353]",,,,,,,,,,,,,,,,,,,,,,,,,,25,001,B,2023_Feb_15_1645,student_TT_local,2021.1.4,48.02273590514534,
,None,None,None,None,None,None,None,None,None,None,mangle,satire,6.5,7.5,video&audio/sentence1_TT_3X.mp4,video&audio/ritual_TT_3X.mp4,warble,ritual,None,,,,,,,,,,,,,,,,,,,,,,,,,,,0,15,15,24,,,,,,,,,,,,,,,,,,,,,,,,,,,,,,,,,,,,,,,,,,,,,,,,None,,,None, warble,"['w', 'a', 'r', 'b', 'l', 'e', 'return']","[0.783101600012742, 0.9913328000111505, 1.4153995000524446, 1.7191806000191718, 1.8472416000440717, 1.9671464000130072, 2.495447800029069]",,,,,,,,,,,,,,,,,,,,,,,,,,25,001,B,2023_Feb_15_1645,student_TT_local,2021.1.4,48.02273590514534,
,None,None,None,None,None,None,None,None,None,None,zephyr,sherry,19.5,20.5,video&audio/Sentence5_touch_edited.mp4,video&audio/forage_touch_edited.mp4,fusion,forage,None,,,,,,,,,,,,,,,,,,,,,,,,,,,0,16,16,10,,,,,,,,,,,,,,,,,,,,,,,,,,,,,,,,,,,,,,,,,,,,,,,,None,,,None, fusion,"['f', 'u', 's', 'i', 'o', 'n', 'return']","[0.7187799999956042, 0.9106783999595791, 1.1027691999915987, 1.254874199978076, 1.4067599999252707, 1.534640199970454, 1.9351369999349117]",,,,,,,,,,,,,,,,,,,,,,,,,,25,001,B,2023_Feb_15_1645,student_TT_local,2021.1.4,48.02273590514534,
,None,None,None,None,None,None,None,None,None,None,caviar,pursue,6.5,7.5,video&audio/sentence3_TT_3X.mp4,video&audio/piston_TT_3X.mp4,shrill,piston,None,,,,,,,,,,,,,,,,,,,,,,,,,,,0,17,17,20,,,,,,,,,,,,,,,,,,,,,,,,,,,,,,,,,,,,,,,,,,,,,,,,None,,,None, shrill,"['s', 'h', 'r', 'o', 'l', 'semicolon', 'backspace', 'backspace', 'i', 'l', 'l', 'return']","[0.37858269992284477, 0.6105548000195995, 0.9065468999324366, 1.0985884999390692, 1.3630259999772534, 1.3705823000054806, 2.010511399945244, 2.146930299932137, 2.3467790000140667, 2.4508822999196127, 2.602738399989903, 3.0748277999227867]",,,,,,,,,,,,,,,,,,,,,,,,,,25,001,B,2023_Feb_15_1645,student_TT_local,2021.1.4,48.02273590514534,
,"This is Section 2.

In this section, your task will be the same as before - that is, to type the word you see on the screen AFTER the typing prompt. However, rather than just seeing the word before typing, you will also see a video of someone typing different words to what you will need to type at different speeds. 

Press 'enter/return' to go to the next page.","This is Section 4. 

In this section, your task will be the same as before - that is, to type the word you see on the screen after the typing prompt. You will see a video again, like in Section 2, only this time, the video will show someone the same word that you must type at different speeds. 

Press 'enter/return' to go to the next page.",video&audio/Example_AOMI_layout.png,1.6,0.6,afford,19.5,20.5,video&audio/amount_touch_edited.mp4,video&audio/afford_touch_edited.mp4,hinder,vanity,19.5,20.5,video&audio/Sentence1_touch_edited.mp4,video&audio/ascend_touch_edited.mp4,breach,ascend,1 = AOMIgen,,,,,,,,,,,,,,,,,,,,,,,,,,,0,18,18,0,,,,,,,,,,,,,,,,,,,,,,,,,,,,,,,,,,,,,,,,,,,,,,,,None,,,None, breach,"['b', 'r', 'e', 'a', 'c', 'h', 'return']","[0.7187477999832481, 0.8790655999910086, 0.9509344999678433, 1.1588393999263644, 1.4227799999061972, 1.574741099961102, 2.2067439999664202]",,,,,,,,,,,,,,,,,,,,,,,,,,25,001,B,2023_Feb_15_1645,student_TT_local,2021.1.4,48.02273590514534,
,"Remember to type as QUICKLY and ACCURATELY as possible after the 'get ready' prompt.

Ask the experimenter any questions now. Please put on the headphones.

You will get one practice trial. Press 'enter/return' when you are ready to start the practice.","Remember to type as QUICKLY and ACCURATELY as you can after the 'get ready' prompt.

Ask the experimenter any questions now. Please put on the headphones.

You will get one practice trial. Press 'enter/return' when you are ready to start the practice.",video&audio/Example_AOMI_total.png,1.8,0.7,None,None,None,None,None,oppose,jargon,19.5,20.5,video&audio/Sentence3_touch_edited.mp4,video&audio/botany_touch_edited.mp4,ghetto,botany,None,,,,,,,,,,,,,,,,,,,,,,,,,,,0,19,19,2,,,,,,,,,,,,,,,,,,,,,,,,,,,,,,,,,,,,,,,,,,,,,,,,None,,,None, ghetto,"['g', 'h', 'e', 't', 't', 'o', 'return']","[0.7882395999040455, 0.980195099953562, 1.1801013000076637, 1.348059399984777, 1.500057499972172, 1.6601499000098556, 2.2368213000008836]",,,,,,,,,,,,,,,,,,,,,,,,,,25,001,B,2023_Feb_15_1645,student_TT_local,2021.1.4,48.02273590514534,
,None,None,None,None,None,None,None,None,None,None,tandem,potent,6.5,7.5,video&audio/sentence4_TT_3X.mp4,video&audio/malady_TT_3X.mp4,origin,malady,None,,,,,,,,,,,,,,,,,,,,,,,,,,,0,20,20,15,,,,,,,,,,,,,,,,,,,,,,,,,,,,,,,,,,,,,,,,,,,,,,,,None,,,None, origin,"['o', 'r', 'i', 'g', 'i', 'n', 'return']","[0.7668609000975266, 0.9826309001073241, 1.1188243000069633, 1.294894800055772, 1.398725200095214, 1.542977000004612, 1.8468198000919074]",,,,,,,,,,,,,,,,,,,,,,,,,,25,001,B,2023_Feb_15_1645,student_TT_local,2021.1.4,48.02273590514534,
,None,None,None,None,None,None,None,None,None,None,delude,strife,19.5,20.5,video&audio/Sentence2_touch_edited.mp4,video&audio/debtor_touch_edited.mp4,galley,debtor,None,,,,,,,,,,,,,,,,,,,,,,,,,,,0,21,21,7,,,,,,,,,,,,,,,,,,,,,,,,,,,,,,,,,,,,,,,,,,,,,,,,None,,,None, galley,"['g', 'a', 'l', 'l', 'e', 'y', 'return']","[0.6205399000318721, 0.8603136000456288, 1.0202927000354975, 1.1482795999618247, 1.268752499949187, 1.5001885000383481, 1.7086220999481156]",,,,,,,,,,,,,,,,,,,,,,,,,,25,001,B,2023_Feb_15_1645,student_TT_local,2021.1.4,48.02273590514534,
,None,None,None,None,None,None,None,None,None,None,primal,novice,19.5,20.5,video&audio/Sentence5_touch_edited.mp4,video&audio/confer_touch_edited.mp4,entail,confer,None,,,,,,,,,,,,,,,,,,,,,,,,,,,0,22,22,4,,,,,,,,,,,,,,,,,,,,,,,,,,,,,,,,,,,,,,,,,,,,,,,,None,,,None, entail,"['e', 'n', 't', 'a', 'i', 'l', 'return']","[0.656378599931486, 0.8164008000167087, 0.9450832000002265, 1.2166853999951854, 1.3205751000205055, 1.5363859999924898, 2.1362439999356866]",,,,,,,,,,,,,,,,,,,,,,,,,,25,001,B,2023_Feb_15_1645,student_TT_local,2021.1.4,48.02273590514534,
,None,None,None,None,None,None,None,None,None,None,joiner,revolt,19.5,20.5,video&audio/Sentence6_touch_edited.mp4,video&audio/cortex_touch_edited.mp4,apathy,cortex,None,,,,,,,,,,,,,,,,,,,,,,,,,,,0,23,23,5,,,,,,,,,,,,,,,,,,,,,,,,,,,,,,,,,,,,,,,,,,,,,,,,None,,,None, apathy,"['a', 'p', 'a', 't', 'h', 'y', 'return']","[0.7741938999388367, 0.9259881000034511, 1.0381047000410035, 1.2540996000170708, 1.3822556999512017, 1.51010930002667, 1.7343526999466121]",,,,,,,,,,,,,,,,,,,,,,,,,,25,001,B,2023_Feb_15_1645,student_TT_local,2021.1.4,48.02273590514534,
,None,None,None,None,None,None,None,None,None,None,patent,binder,19.5,20.5,video&audio/Sentence6_touch_edited.mp4,video&audio/frugal_touch_edited.mp4,defame,frugal,None,,,,,,,,,,,,,,,,,,,,,,,,,,,0,24,24,11,,,,,,,,,,,,,,,,,,,,,,,,,,,,,,,,,,,,,,,,,,,,,,,,None,,,None, defame,"['d', 'e', 'f', 'a', 'm', 'e', 'return']","[0.9530973000219092, 1.1769970000023022, 1.3850303000072017, 1.6012548999860883, 1.7375676999799907, 1.889036800013855, 2.1290841000154614]",,,,,,,,,,,,,,,,,,,,,,,,,,25,001,B,2023_Feb_15_1645,student_TT_local,2021.1.4,48.02273590514534,
,None,None,None,None,None,None,None,None,None,None,girdle,manure,6.5,7.5,video&audio/sentence6_TT_3X.mp4,video&audio/pulpit_TT_3X.mp4,linear,pulpit,None,,,,,,,,,,,,,,,,,,,,,,,,,,,0,25,25,23,,,,,,,,,,,,,,,,,,,,,,,,,,,,,,,,,,,,,,,,,,,,,,,,None,,,None, linear,"['l', 'i', 'n', 'e', 'a', 'r', 'return']","[0.6831157000269741, 0.8990415999433026, 1.0277495000045747, 1.2276298999786377, 1.4190458999946713, 1.6110972999595106, 1.8431512999814004]",,,,,,,,,,,,,,,,,,,,,,,,,,25,001,B,2023_Feb_15_1645,student_TT_local,2021.1.4,48.02273590514534,
,None,None,None,None,None,None,None,None,None,None,hearth,sonnet,19.5,20.5,video&audio/Sentence3_touch_edited.mp4,video&audio/kipper_touch_edited.mp4,herbal,kipper,None,,,,,,,,,,,,,,,,,,,,,,,,,,,0,26,26,14,,,,,,,,,,,,,,,,,,,,,,,,,,,,,,,,,,,,,,,,,,,,,,,,None,,,None, herbal,"['h', 'e', 'r', 'b', 'a', 'l', 'return']","[0.5611109000165015, 0.7606137000257149, 0.8166927000274882, 0.9927767000626773, 1.2166197000769898, 1.4328729000408202, 2.0169933000579476]",,,,,,,,,,,,,,,,,,,,,,,,,,25,001,B,2023_Feb_15_1645,student_TT_local,2021.1.4,48.02273590514534,
,None,None,None,None,None,None,None,None,None,None,trench,fodder,6.5,7.5,video&audio/sentence4_TT_3X.mp4,video&audio/subtle_TT_3X.mp4,ethnic,subtle,None,,,,,,,,,,,,,,,,,,,,,,,,,,,0,27,27,27,,,,,,,,,,,,,,,,,,,,,,,,,,,,,,,,,,,,,,,,,,,,,,,,None,,,None, ethnic,"['e', 't', 'h', 'n', 'i', 'c', 'return']","[0.5812757998937741, 0.7809856999665499, 0.9574256999185309, 1.1729512999299914, 1.2769797999644652, 1.4371819999068975, 1.8128249999135733]",,,,,,,,,,,,,,,,,,,,,,,,,,25,001,B,2023_Feb_15_1645,student_TT_local,2021.1.4,48.02273590514534,
,None,None,None,None,None,None,None,None,None,None,cobble,murmur,6.5,7.5,video&audio/sentence2_TT_3X.mp4,video&audio/picket_TT_3X.mp4,export,picket,None,,,,,,,,,,,,,,,,,,,,,,,,,,,0,28,28,19,,,,,,,,,,,,,,,,,,,,,,,,,,,,,,,,,,,,,,,,,,,,,,,,None,,,None, export,"['e', 'x', 'p', 'o', 'r', 't', 'return']","[0.7529298999579623, 1.0169046999653801, 1.2008703999454156, 1.2491629000287503, 1.58503059996292, 1.6729450999991968, 2.208942999946885]",,,,,,,,,,,,,,,,,,,,,,,,,,25,001,B,2023_Feb_15_1645,student_TT_local,2021.1.4,48.02273590514534,
,None,None,None,None,None,None,None,None,None,None,septic,quarry,19.5,20.5,video&audio/Sentence2_touch_edited.mp4,video&audio/jackal_touch_edited.mp4,ordain,jackal,None,,,,,,,,,,,,,,,,,,,,,,,,,,,0,29,29,13,,,,,,,,,,,,,,,,,,,,,,,,,,,,,,,,,,,,,,,,,,,,,,,,None,,,None, ordain,"['o', 'r', 'd', 'a', 'i', 'n', 'return']","[0.7841219999827445, 0.936431200010702, 1.1681459000101313, 1.2640026999870315, 1.4320023000473157, 1.5285827000625432, 2.04802580003161]",,,,,,,,,,,,,,,,,,,,,,,,,,25,001,B,2023_Feb_15_1645,student_TT_local,2021.1.4,48.02273590514534,
,,,,,,,,,,,,,,,,,,,,typingRatingScale.png,"How would you rate your typing performance in the previous section?

Press a number on your keyboard according to the rating scale below to give your answer. Your first answer will be accepted.",,,,,,,,,,,,,,,,,,,,,,,,,,,,,0,0,0,0,,,,,,,,,,,,,,,,,,,,,,,,,,,,,,,,,,,,,,,,,,,,,,,,,,,['4'],[5.964293299941346],,,,,,,,,,,,,,,,,,,,,,,,25,001,B,2023_Feb_15_1645,student_TT_local,2021.1.4,48.02273590514534,
,,,,,,,,,,,,,,,,,,,,visualImageryScale.png,"While imagining yourself typing, how clear was your visual image?

Press a number on your keyboard according to the rating scale below to give your answer. Your first answer will be accepted.",,,,,,,,,,,,,,,,,,,,,,,,,,,,,0,1,1,1,,,,,,,,,,,,,,,,,,,,,,,,,,,,,,,,,,,,,,,,,,,,,,,,,,,['4'],[6.4686287000076845],,,,,,,,,,,,,,,,,,,,,,,,25,001,B,2023_Feb_15_1645,student_TT_local,2021.1.4,48.02273590514534,
,,,,,,,,,,,,,,,,,,,,kinestheticImageryScale.png,"While imagining yourself typing, how intense were the sensations associated with the imagined movement?

Press a number on your keyboard according to the rating scale below to give your answer. Your first answer will be accepted.",,,,,,,,,,,,,,,,,,,,,,,,,,,,,0,2,2,2,,,,,,,,,,,,,,,,,,,,,,,,,,,,,,,,,,,,,,,,,,,,,,,,,,,['2'],[7.918472999939695],,,,,,,,,,,,,,,,,,,,,,,,25,001,B,2023_Feb_15_1645,student_TT_local,2021.1.4,48.02273590514534,
,None,None,None,None,None,None,None,None,None,None,fungal,brazen,6.5,7.5,video&audio/sentence5_TT_3X.mp4,video&audio/matrix_TT_3X.mp4,mucous,matrix,None,,,,,,,,,,,,,,,,,,,,,,,,,,,,,,,,,,,,,,,,,,,0,0,0,22,,,,,,,,,,,,,,,,,,,,,,,,,,,,,,,,,,,,,,,,,3027.3661868000636,3033.882230300107,None, butter,"['b', 'u', 't', 't', 'e', 'r', 'return']","[0.7089927000924945, 0.861645600060001, 1.0210152000654489, 1.1650435000192374, 1.3249621000140905, 1.4049127000616863, 1.7894908000016585]",3062.857521200087,3069.357270800043,None, brazen,"['b', 'r', 'a', 'z', 'e', 'n', 'return']","[0.792554699932225, 0.9131109999725595, 1.1686729999491945, 1.4487353999866173, 1.6649428999517113, 1.816633899929002, 2.064655900001526]",,,,,,,,,,,,25,001,B,2023_Feb_15_1645,student_TT_local,2021.1.4,48.02273590514534,
,None,None,None,None,None,None,None,None,None,None,septic,quarry,19.5,20.5,video&audio/Sentence2_touch_edited.mp4,video&audio/jackal_touch_edited.mp4,ordain,jackal,None,,,,,,,,,,,,,,,,,,,,,,,,,,,,,,,,,,,,,,,,,,,0,1,1,13,,,,,,,,,,,,,,,,,,,,,,,,,,,,,,,,,,,,,,,,,,,,,,,3072.4647696000757,3091.980061600101,None, quarry,"['q', 'u', 'a', 'r', 'r', 'y', 'return']","[0.746418199967593, 0.9545382999349385, 1.0738731999881566, 1.2982207000022754, 1.4343180999858305, 1.5460580999497324, 1.8505307999439538]",,,,,,,,,,,,25,001,B,2023_Feb_15_1645,student_TT_local,2021.1.4,48.02273590514534,
,None,None,None,None,None,None,None,None,None,None,patent,binder,19.5,20.5,video&audio/Sentence6_touch_edited.mp4,video&audio/frugal_touch_edited.mp4,defame,frugal,None,,,,,,,,,,,,,,,,,,,,,,,,,,,,,,,,,,,,,,,,,,,0,2,2,11,,,,,,,,,,,,,,,,,,,,,,,,,,,,,,,,,,,,,,,,,,,,,,,3094.8589338000165,3114.3733685000334,None, binder,"['b', 'i', 'n', 'd', 'e', 'r', 'return']","[0.7624768998939544, 0.8981546999420971, 1.00205599993933, 1.1141623998992145, 1.25823399994988, 1.338181099970825, 1.4984024999430403]",,,,,,,,,,,,25,001,B,2023_Feb_15_1645,student_TT_local,2021.1.4,48.02273590514534,
,None,None,None,None,None,None,None,None,None,None,befall,goblet,19.5,20.5,video&audio/Sentence3_touch_edited.mp4,video&audio/devise_touch_edited.mp4,ration,devise,None,,,,,,,,,,,,,,,,,,,,,,,,,,,,,,,,,,,,,,,,,,,0,3,3,8,,,,,,,,,,,,,,,,,,,,,,,,,,,,,,,,,,,,,,,,,,,,,,,3116.8966874000616,3136.412526100059,None, goblet,"['g', 'o', 'b', 'l', 'e', 't', 'return']","[0.8427768999245018, 0.9949448999250308, 1.2669115999015048, 1.3788190999766812, 1.53093699994497, 1.722830199985765, 1.9151403999421746]",,,,,,,,,,,,25,001,B,2023_Feb_15_1645,student_TT_local,2021.1.4,48.02273590514534,
,None,None,None,None,None,None,None,None,None,None,shrewd,mirage,19.5,20.5,video&audio/Sentence1_touch_edited.mp4,video&audio/covert_touch_edited.mp4,revoke,covert,None,,,,,,,,,,,,,,,,,,,,,,,,,,,,,,,,,,,,,,,,,,,0,4,4,6,,,,,,,,,,,,,,,,,,,,,,,,,,,,,,,,,,,,,,,,,,,,,,,3139.3524017001037,3158.8682241000934,None, mirage,"['m', 'i', 'r', 'a', 'g', 'e', 'return']","[0.707225100020878, 0.8991747000254691, 1.0114646999863908, 1.2033480000682175, 1.3473739000037313, 1.4513701000250876, 1.8993441000347957]",,,,,,,,,,,,25,001,B,2023_Feb_15_1645,student_TT_local,2021.1.4,48.02273590514534,
,None,None,None,None,None,None,None,None,None,None,primal,novice,19.5,20.5,video&audio/Sentence5_touch_edited.mp4,video&audio/confer_touch_edited.mp4,entail,confer,None,,,,,,,,,,,,,,,,,,,,,,,,,,,,,,,,,,,,,,,,,,,0,5,5,4,,,,,,,,,,,,,,,,,,,,,,,,,,,,,,,,,,,,,,,,,,,,,,,3161.8088072000537,3181.323770100018,None, novice,"['n', 'o', 'v', 'i', 'c', 'e', 'return']","[0.7850001999177039, 0.9130482999607921, 1.0574968999717385, 1.1930677999043837, 1.2971847999142483, 1.4892345999833196, 1.6810005999868736]",,,,,,,,,,,,25,001,B,2023_Feb_15_1645,student_TT_local,2021.1.4,48.02273590514534,
,"This is Section 2.

In this section, your task will be the same as before - that is, to type the word you see on the screen AFTER the typing prompt. However, rather than just seeing the word before typing, you will also see a video of someone typing different words to what you will need to type at different speeds. 

Press 'enter/return' to go to the next page.","This is Section 4. 

In this section, your task will be the same as before - that is, to type the word you see on the screen after the typing prompt. You will see a video again, like in Section 2, only this time, the video will show someone the same word that you must type at different speeds. 

Press 'enter/return' to go to the next page.",video&audio/Example_AOMI_layout.png,1.6,0.6,afford,19.5,20.5,video&audio/amount_touch_edited.mp4,video&audio/afford_touch_edited.mp4,hinder,vanity,19.5,20.5,video&audio/Sentence1_touch_edited.mp4,video&audio/ascend_touch_edited.mp4,breach,ascend,1 = AOMIgen,,,,,,,,,,,,,,,,,,,,,,,,,,,,,,,,,,,,,,,,,,,0,6,6,0,,,,,,,,,,,,,,,,,,,,,,,,,,,,,,,,,,,,,,,,,,,,,,,3184.035375400097,3203.550434700097,None, vanity,"['v', 'a', 'n', 'i', 't', 'y', 'return']","[0.9679390999954194, 1.136060499935411, 1.295720799942501, 1.4077926999889314, 1.551909999921918, 1.6638088999316096, 2.1598435998894274]",,,,,,,,,,,,25,001,B,2023_Feb_15_1645,student_TT_local,2021.1.4,48.02273590514534,
,None,None,None,None,None,None,None,None,None,None,cobble,murmur,6.5,7.5,video&audio/sentence2_TT_3X.mp4,video&audio/picket_TT_3X.mp4,export,picket,None,,,,,,,,,,,,,,,,,,,,,,,,,,,,,,,,,,,,,,,,,,,0,7,7,19,,,,,,,,,,,,,,,,,,,,,,,,,,,,,,,,,,,,,,,,,,,,,,,3206.741599000059,3213.2579877000535,None, murmur,"['m', 'u', 'r', 'm', 'u', 'r', 'return']","[0.6854087999090552, 0.8613092999439687, 0.9976308000041172, 1.0935005999635905, 1.2772425999864936, 1.429250199929811, 2.165536099928431]",,,,,,,,,,,,25,001,B,2023_Feb_15_1645,student_TT_local,2021.1.4,48.02273590514534,
,None,None,None,None,None,None,None,None,None,None,oblige,infirm,19.5,20.5,video&audio/Sentence4_touch_edited.mp4,video&audio/cervix_touch_edited.mp4,mystic,cervix,None,,,,,,,,,,,,,,,,,,,,,,,,,,,,,,,,,,,,,,,,,,,0,8,8,3,,,,,,,,,,,,,,,,,,,,,,,,,,,,,,,,,,,,,,,,,,,,,,,3216.469178900006,3235.9841404000763,None, infirm,"['i', 'n', 'f', 'i', 'r', 'm', 'return']","[0.7419539999682456, 0.8220494999550283, 0.9901950999628752, 1.062216299935244, 1.2060037000337616, 1.309863599948585, 1.8541643000207841]",,,,,,,,,,,,25,001,B,2023_Feb_15_1645,student_TT_local,2021.1.4,48.02273590514534,
,None,None,None,None,None,None,None,None,None,None,mangle,satire,6.5,7.5,video&audio/sentence1_TT_3X.mp4,video&audio/ritual_TT_3X.mp4,warble,ritual,None,,,,,,,,,,,,,,,,,,,,,,,,,,,,,,,,,,,,,,,,,,,0,9,9,24,,,,,,,,,,,,,,,,,,,,,,,,,,,,,,,,,,,,,,,,,,,,,,,3238.8836502000922,3245.3999632000923,None, satire,"['s', 'a', 't', 'i', 'r', 'e', 'return']","[0.6940277999965474, 1.373778700013645, 1.7500820000423118, 1.8778919000178576, 2.0297947000944987, 2.1982402000576258, 2.422600800055079]",,,,,,,,,,,,25,001,B,2023_Feb_15_1645,student_TT_local,2021.1.4,48.02273590514534,
,None,None,None,None,None,None,None,None,None,None,zephyr,sherry,19.5,20.5,video&audio/Sentence5_touch_edited.mp4,video&audio/forage_touch_edited.mp4,fusion,forage,None,,,,,,,,,,,,,,,,,,,,,,,,,,,,,,,,,,,,,,,,,,,0,10,10,10,,,,,,,,,,,,,,,,,,,,,,,,,,,,,,,,,,,,,,,,,,,,,,,3276.9187543001026,3296.4358034000034,None, sherry,"['s', 'h', 'e', 'r', 'r', 'y', 'return']","[0.5478445999324322, 0.6523180999793112, 0.779859900008887, 0.9081494000274688, 1.083834599936381, 1.2201679999707267, 1.7720968999201432]",,,,,,,,,,,,25,001,B,2023_Feb_15_1645,student_TT_local,2021.1.4,48.02273590514534,
,None,None,None,None,None,None,None,None,None,None,output,convoy,6.5,7.5,video&audio/sentence1_TT_3X.mp4,video&audio/parcel_TT_3X.mp4,uphold,parcel,None,,,,,,,,,,,,,,,,,,,,,,,,,,,,,,,,,,,,,,,,,,,0,11,11,18,,,,,,,,,,,,,,,,,,,,,,,,,,,,,,,,,,,,,,,,,,,,,,,3299.252454200061,3305.767772500054,None, convoy,"['c', 'o', 'n', 'v', 'o', 'y', 'return']","[0.677769499947317, 0.7818847999442369, 0.9341055999975652, 1.0617593999486417, 1.1659178999252617, 1.3096695999847725, 1.7977157999994233]",,,,,,,,,,,,25,001,B,2023_Feb_15_1645,student_TT_local,2021.1.4,48.02273590514534,
,None,None,None,None,None,None,None,None,None,None,feudal,impose,6.5,7.5,video&audio/sentence3_TT_3X.mp4,video&audio/subdue_TT_3X.mp4,matron,subdue,None,,,,,,,,,,,,,,,,,,,,,,,,,,,,,,,,,,,,,,,,,,,0,12,12,26,,,,,,,,,,,,,,,,,,,,,,,,,,,,,,,,,,,,,,,,,,,,,,,3308.604356700089,3315.1210401999997,None, impose,"['i', 'm', 'p', 'o', 's', 'e', 'return']","[0.6693375000031665, 0.8212435999885201, 0.9893638999201357, 1.0852730999467894, 1.2214028999442235, 1.4214408999541774, 1.685290199937299]",,,,,,,,,,,,25,001,B,2023_Feb_15_1645,student_TT_local,2021.1.4,48.02273590514534,
,None,None,None,None,None,None,None,None,None,None,induce,savant,6.5,7.5,video&audio/sentence4_TT_3X.mp4,video&audio/plasma_TT_3X.mp4,mussel,plasma,None,,,,,,,,,,,,,,,,,,,,,,,,,,,,,,,,,,,,,,,,,,,0,13,13,21,,,,,,,,,,,,,,,,,,,,,,,,,,,,,,,,,,,,,,,,,,,,,,,3317.8527192000765,3324.370127800037,None, savant,"['s', 'a', 'v', 'a', 'n', 't', 'return']","[0.6856795999919996, 0.8772028000093997, 1.0132599000353366, 1.1094530000118539, 1.253198100021109, 1.389184799976647, 1.9174380999756977]",,,,,,,,,,,,25,001,B,2023_Feb_15_1645,student_TT_local,2021.1.4,48.02273590514534,
,None,None,None,None,None,None,None,None,None,None,campus,legion,6.5,7.5,video&audio/sentence6_TT_3X.mp4,video&audio/virile_TT_3X.mp4,allure,virile,None,,,,,,,,,,,,,,,,,,,,,,,,,,,,,,,,,,,,,,,,,,,0,14,14,29,,,,,,,,,,,,,,,,,,,,,,,,,,,,,,,,,,,,,,,,,,,,,,,3327.3314344000537,3333.8479012000607,None, legion,"['l', 'e', 'g', 'u', 'backspace', 'i', 'o', 'n', 'return']","[0.66152800002601, 0.8130689000245184, 0.9810241999803111, 1.1094574999297038, 1.533366399933584, 1.9972798000089824, 2.1891339999856427, 2.34121480002068, 2.6216315999627113]",,,,,,,,,,,,25,001,B,2023_Feb_15_1645,student_TT_local,2021.1.4,48.02273590514534,
,None,None,None,None,None,None,None,None,None,None,parish,upkeep,6.5,7.5,video&audio/sentence5_TT_3X.mp4,video&audio/tariff_TT_3X.mp4,gullet,tariff,None,,,,,,,,,,,,,,,,,,,,,,,,,,,,,,,,,,,,,,,,,,,0,15,15,28,,,,,,,,,,,,,,,,,,,,,,,,,,,,,,,,,,,,,,,,,,,,,,,3337.496300700004,3344.01373580005,None, upkeep,"['u', 'p', 'k', 'e', 'e', 'p', 'return']","[0.7375274000223726, 0.9374544000020251, 1.1134642000542954, 1.2814634999958798, 1.409457000088878, 1.5214466999750584, 2.057499499991536]",,,,,,,,,,,,25,001,B,2023_Feb_15_1645,student_TT_local,2021.1.4,48.02273590514534,
,"While you watch the video, imagine yourself typing the word on the screen, like how you did in the imagery practice. While you watch the video and imagine this, rest your hands on your keyboard but DO NOT type until AFTER you see the typing prompt.

Press 'enter/return' to go to the next page.","While watching the video, imagine yourself typing the word on the screen, like how you did in the imagery practice. While you watch the video and imagine this, rest your hands on your keyboard but DO NOT type until AFTER you see the typing prompt.

Press 'enter/return' to go to the next page.",video&audio/Example_AOMI_imagine.png,1.6,1,butter,6.5,7.5,video&audio/amount_TT_3X.mp4,video&audio/butter_TT_3X.mp4,metric,plight,19.5,20.5,video&audio/Sentence2_touch_edited.mp4,video&audio/belfry_touch_edited.mp4,eatery,belfry,2 = AOMIspec,,,,,,,,,,,,,,,,,,,,,,,,,,,,,,,,,,,,,,,,,,,0,16,16,1,,,,,,,,,,,,,,,,,,,,,,,,,,,,,,,,,,,,,,,,,,,,,,,3347.1002033000113,3366.6151071001077,['p'], plight,"['p', 'l', 'o', 'i', 'g', 'h', 't', 'backspace', 'backspace', 'backspace', 'backspace', 'backspace', 'i', 'g', 'h', 't', 'return']","[0.5604441000614315, 0.7759906999999657, 0.9840683999937028, 1.0080946000525728, 1.1526933000423014, 1.312082099961117, 1.4639938999898732, 1.9442062999587506, 2.096038799965754, 2.239889199961908, 2.3761549999471754, 2.5039631000254303, 2.9763890999602154, 3.1362223000032827, 3.2319645000388846, 3.3440051999641582, 3.672569700051099]",[20.22872550005559],,,,,,,,,,,25,001,B,2023_Feb_15_1645,student_TT_local,2021.1.4,48.02273590514534,
,None,None,None,None,None,None,None,None,None,None,trench,fodder,6.5,7.5,video&audio/sentence4_TT_3X.mp4,video&audio/subtle_TT_3X.mp4,ethnic,subtle,None,,,,,,,,,,,,,,,,,,,,,,,,,,,,,,,,,,,,,,,,,,,0,17,17,27,,,,,,,,,,,,,,,,,,,,,,,,,,,,,,,,,,,,,,,,,,,,,,,3371.326357300044,3377.842901600059,None, fodder,"['d', 'o', 'backspace', 'backspace', 'f', 'o', 'f', 'equal', 'backspace', 'backspace', 'd', 'd', 'e', 'r', 'return']","[1.003303000004962, 1.2273080999730155, 1.4833500999957323, 1.6355417999438941, 1.8916535000316799, 2.2512649999698624, 2.459234399953857, 2.8273166000144556, 3.059736800030805, 3.2513332000235096, 3.411272899946198, 3.53133429994341, 3.7393141000065953, 3.827544100000523, 4.323638599948026]",,,,,,,,,,,,25,001,B,2023_Feb_15_1645,student_TT_local,2021.1.4,48.02273590514534,
,None,None,None,None,None,None,None,None,None,None,girdle,manure,6.5,7.5,video&audio/sentence6_TT_3X.mp4,video&audio/pulpit_TT_3X.mp4,linear,pulpit,None,,,,,,,,,,,,,,,,,,,,,,,,,,,,,,,,,,,,,,,,,,,0,18,18,23,,,,,,,,,,,,,,,,,,,,,,,,,,,,,,,,,,,,,,,,,,,,,,,3383.2004282000707,3389.71648990002,None, manure,"['m', 'a', 'u', 'i', 'r', 'e', 'backspace', 'backspace', 'backspace', 'n', 'u', 'r', 'e', 'return']","[0.6822270000120625, 0.8506101000821218, 1.0422718001063913, 1.0504251000238582, 1.2342178000835702, 1.2824222000781447, 1.8505995000014082, 1.9865828000474721, 2.1302125001093373, 2.394166100071743, 2.498693300061859, 2.610701300087385, 2.6662140000844374, 3.08238760009408]",,,,,,,,,,,,25,001,B,2023_Feb_15_1645,student_TT_local,2021.1.4,48.02273590514534,
,None,None,None,None,None,None,None,None,None,None,caviar,pursue,6.5,7.5,video&audio/sentence3_TT_3X.mp4,video&audio/piston_TT_3X.mp4,shrill,piston,None,,,,,,,,,,,,,,,,,,,,,,,,,,,,,,,,,,,,,,,,,,,0,19,19,20,,,,,,,,,,,,,,,,,,,,,,,,,,,,,,,,,,,,,,,,,,,,,,,3393.844855100033,3400.361414700048,None, pursue,"['p', 'u', 'r', 's', 'u', 'r', 'e', 'backspace', 'backspace', 'backspace', 'r', 'e', 'backspace', 'backspace', 'u', 'e', 'return']","[0.7021768999984488, 0.9343308999668807, 1.1181195999961346, 1.373888299916871, 1.5022626999998465, 1.5900718999328092, 1.6543466999428347, 2.1581791999051347, 2.2939730999059975, 2.678215999971144, 3.1422564999666065, 3.238274100003764, 3.486700900015421, 3.6462168999714777, 4.358082499937154, 4.454213799908757, 4.670084399986081]",,,,,,,,,,,,25,001,B,2023_Feb_15_1645,student_TT_local,2021.1.4,48.02273590514534,
,"Remember to type as QUICKLY and ACCURATELY as possible after the 'get ready' prompt.

Ask the experimenter any questions now. Please put on the headphones.

You will get one practice trial. Press 'enter/return' when you are ready to start the practice.","Remember to type as QUICKLY and ACCURATELY as you can after the 'get ready' prompt.

Ask the experimenter any questions now. Please put on the headphones.

You will get one practice trial. Press 'enter/return' when you are ready to start the practice.",video&audio/Example_AOMI_total.png,1.8,0.7,None,None,None,None,None,oppose,jargon,19.5,20.5,video&audio/Sentence3_touch_edited.mp4,video&audio/botany_touch_edited.mp4,ghetto,botany,None,,,,,,,,,,,,,,,,,,,,,,,,,,,,,,,,,,,,,,,,,,,0,20,20,2,,,,,,,,,,,,,,,,,,,,,,,,,,,,,,,,,,,,,,,,,,,,,,,3483.874607100035,3503.391203000094,None, jargon,"['j', 'a', 'r', 'g', 'o', 'n', 'return']","[0.566749699995853, 0.7267083000624552, 0.9590963000664487, 1.3107272000052035, 1.4229262000881135, 1.5190806000027806, 1.9991680000675842]",,,,,,,,,,,,25,001,B,2023_Feb_15_1645,student_TT_local,2021.1.4,48.02273590514534,
,None,None,None,None,None,None,None,None,None,None,joiner,revolt,19.5,20.5,video&audio/Sentence6_touch_edited.mp4,video&audio/cortex_touch_edited.mp4,apathy,cortex,None,,,,,,,,,,,,,,,,,,,,,,,,,,,,,,,,,,,,,,,,,,,0,21,21,5,,,,,,,,,,,,,,,,,,,,,,,,,,,,,,,,,,,,,,,,,,,,,,,3506.4354202001123,3525.951217600028,None, revolt,"['r', 'e', 'v', 'o', 'l', 't', 'return']","[0.7365292999893427, 0.8164775000186637, 1.040768599952571, 1.1848482999484986, 1.3685557999415323, 1.4964936999604106, 1.7844806000357494]",,,,,,,,,,,,25,001,B,2023_Feb_15_1645,student_TT_local,2021.1.4,48.02273590514534,
,None,None,None,None,None,None,None,None,None,None,innate,critic,19.5,20.5,video&audio/Sentence1_touch_edited.mp4,video&audio/hippie_touch_edited.mp4,tamper,hippie,None,,,,,,,,,,,,,,,,,,,,,,,,,,,,,,,,,,,,,,,,,,,0,22,22,12,,,,,,,,,,,,,,,,,,,,,,,,,,,,,,,,,,,,,,,,,,,,,,,3528.7666104000527,3548.2822263001,None, critic,"['c', 't', 'backspace', 'r', 'i', 't', 'i', 'c', 'return']","[0.717150199925527, 1.045333500020206, 1.5572284000227228, 1.8051517999265343, 2.0290999999269843, 2.157443800009787, 2.2690754999639466, 2.4132044999860227, 3.42910499998834]",,,,,,,,,,,,25,001,B,2023_Feb_15_1645,student_TT_local,2021.1.4,48.02273590514534,
,None,None,None,None,None,None,None,None,None,None,hearth,sonnet,19.5,20.5,video&audio/Sentence3_touch_edited.mp4,video&audio/kipper_touch_edited.mp4,herbal,kipper,None,,,,,,,,,,,,,,,,,,,,,,,,,,,,,,,,,,,,,,,,,,,0,23,23,14,,,,,,,,,,,,,,,,,,,,,,,,,,,,,,,,,,,,,,,,,,,,,,,3552.7431369000115,3572.2582911000354,None, sonnet,"['s', 'o', 'n', 'n', 'e', 't', 'return']","[0.8764679000014439, 1.0926231999183074, 1.3007807999383658, 1.4450555999064818, 1.5728957999963313, 2.2125289998948574, 2.4685448999516666]",,,,,,,,,,,,25,001,B,2023_Feb_15_1645,student_TT_local,2021.1.4,48.02273590514534,
,None,None,None,None,None,None,None,None,None,None,tandem,potent,6.5,7.5,video&audio/sentence4_TT_3X.mp4,video&audio/malady_TT_3X.mp4,origin,malady,None,,,,,,,,,,,,,,,,,,,,,,,,,,,,,,,,,,,,,,,,,,,0,24,24,15,,,,,,,,,,,,,,,,,,,,,,,,,,,,,,,,,,,,,,,,,,,,,,,3575.7627173000947,3582.277868000092,None, potent,"['p', 'o', 't', 'e', 'n', 't', 'return']","[0.8569130001123995, 1.0170930000022054, 1.2169971000403166, 1.3690276000415906, 1.4973998001078144, 1.5929777000565082, 1.8249587001046166]",,,,,,,,,,,,25,001,B,2023_Feb_15_1645,student_TT_local,2021.1.4,48.02273590514534,
,None,None,None,None,None,None,None,None,None,None,clergy,coerce,6.5,7.5,video&audio/sentence6_TT_3X.mp4,video&audio/obsess_TT_3X.mp4,portal,obsess,None,,,,,,,,,,,,,,,,,,,,,,,,,,,,,,,,,,,,,,,,,,,0,25,25,17,,,,,,,,,,,,,,,,,,,,,,,,,,,,,,,,,,,,,,,,,,,,,,,3585.135211300105,3591.65184950002,None, coerce,"['c', 'o', 'e', 'r', 'c', 'e', 'return']","[0.7871632999740541, 0.9071176999714226, 1.0990094000007957, 1.1634004999650642, 1.395096700056456, 1.491200500051491, 1.6831133000086993]",,,,,,,,,,,,25,001,B,2023_Feb_15_1645,student_TT_local,2021.1.4,48.02273590514534,
,None,None,None,None,None,None,None,None,None,None,jailer,deduct,6.5,7.5,video&audio/sentence5_TT_3X.mp4,video&audio/neural_TT_3X.mp4,nettle,neural,None,,,,,,,,,,,,,,,,,,,,,,,,,,,,,,,,,,,,,,,,,,,0,26,26,16,,,,,,,,,,,,,,,,,,,,,,,,,,,,,,,,,,,,,,,,,,,,,,,3594.3640709000174,3600.88011820009,None, deduct,"['d', 'e', 'd', 'u', 'c', 't', 'return']","[0.7914852999383584, 0.9434016000013798, 1.159310800023377, 1.4395109999459237, 1.5914005000377074, 1.7111486999783665, 2.0472913000267]",,,,,,,,,,,,25,001,B,2023_Feb_15_1645,student_TT_local,2021.1.4,48.02273590514534,
,None,None,None,None,None,None,None,None,None,None,delude,strife,19.5,20.5,video&audio/Sentence2_touch_edited.mp4,video&audio/debtor_touch_edited.mp4,galley,debtor,None,,,,,,,,,,,,,,,,,,,,,,,,,,,,,,,,,,,,,,,,,,,0,27,27,7,,,,,,,,,,,,,,,,,,,,,,,,,,,,,,,,,,,,,,,,,,,,,,,3603.9667942000087,3623.4816110000247,None, strife,"['s', 't', 'r', 'i', 'f', 'e', 'return']","[0.8051613999996334, 1.0611811999697238, 1.1572923999046907, 1.3419436999829486, 1.5174165999051183, 1.669193199952133, 2.045269800000824]",,,,,,,,,,,,25,001,B,2023_Feb_15_1645,student_TT_local,2021.1.4,48.02273590514534,
,None,None,None,None,None,None,None,None,None,None,meddle,musket,6.5,7.5,video&audio/sentence2_TT_3X.mp4,video&audio/solemn_TT_3X.mp4,divert,solemn,None,,,,,,,,,,,,,,,,,,,,,,,,,,,,,,,,,,,,,,,,,,,0,28,28,25,,,,,,,,,,,,,,,,,,,,,,,,,,,,,,,,,,,,,,,,,,,,,,,3626.568297300022,3633.0848440000555,None, musket,"['m', 'u', 's', 'k', 'e', 't', 'return']","[0.7054563999408856, 0.9054531999863684, 1.0253115999512374, 1.1135775999864563, 1.2492527000140399, 1.377468799939379, 1.8413785999873653]",,,,,,,,,,,,25,001,B,2023_Feb_15_1645,student_TT_local,2021.1.4,48.02273590514534,
,None,None,None,None,None,None,None,None,None,None,hamlet,parole,19.5,20.5,video&audio/Sentence4_touch_edited.mp4,video&audio/falter_touch_edited.mp4,shroud,falter,None,,,,,,,,,,,,,,,,,,,,,,,,,,,,,,,,,,,,,,,,,,,0,29,29,9,,,,,,,,,,,,,,,,,,,,,,,,,,,,,,,,,,,,,,,,,,,,,,,3635.9631685001077,3655.478014200111,None, parole,"['p', 'a', 's', 'r', 'o', 'l', 'e', 'return']","[0.7772433999925852, 1.0647963000228629, 1.0729499999433756, 1.7128166999900714, 1.8248951999703422, 1.992828099988401, 2.081027499982156, 2.576846200041473]",,,,,,,,,,,,25,001,B,2023_Feb_15_1645,student_TT_local,2021.1.4,48.02273590514534,
,,,,,,,,,,,,,,,,,,,,typingRatingScale.png,"How would you rate your typing performance in the previous section?

Press a number on your keyboard according to the rating scale below to give your answer. Your first answer will be accepted.",,,,,,,,,,,,,,,,,,,,,,,,,,,,,,,,,,,,,,,,,,,,,0,0,0,0,,,,,,,,,,,,,,,,,,,,,,,,,,,,,,,,,,,,,,,,,,,,,,,,,,['3'],[6.261708999983966],,,,,,,,,25,001,B,2023_Feb_15_1645,student_TT_local,2021.1.4,48.02273590514534,
,,,,,,,,,,,,,,,,,,,,imageryCheckScale.png,"In the previous section did you imagine yourself typing?

Press a number on your keyboard according to the rating scale below to give your answer. Your first answer will be accepted.",,,,,,,,,,,,,,,,,,,,,,,,,,,,,,,,,,,,,,,,,,,,,0,1,1,1,,,,,,,,,,,,,,,,,,,,,,,,,,,,,,,,,,,,,,,,,,,,,,,,,,['1'],[5.9130342999706045],,,,,,,,,25,001,B,2023_Feb_15_1645,student_TT_local,2021.1.4,48.02273590514534,
,None,None,None,None,None,None,None,None,None,None,parish,upkeep,6.5,7.5,video&audio/sentence5_TT_3X.mp4,video&audio/tariff_TT_3X.mp4,gullet,tariff,None,,,,,,,,,,,,,,,,,,,,,,,,,,,,,,,,,,,,,,,,,,,,,,,,,,,,,,,,,,,0,0,0,28,,,,,,,,,,,,,,,,None,"['b', 'u', 'u', 'backspace', 't', 't', 'e', 'r', 'return']","[0.6842061000643298, 0.908173399977386, 1.0605306000215933, 1.6278802000451833, 1.8758724000072107, 2.003892600070685, 2.2366131000453606, 2.3080096000339836, 2.6918506000656635]",,,,,,,,,,,,,,,,,,,,,,None,None, tariff,"['t', 'a', 'r', 'i', 'f', 'f', 'return']","[0.48382139997556806, 0.9320450999075547, 1.2759705999633297, 1.5240809998940676, 1.7081661999691278, 1.8437983999028802, 2.428295799996704]",,,,25,001,B,2023_Feb_15_1645,student_TT_local,2021.1.4,48.02273590514534,
,None,None,None,None,None,None,None,None,None,None,clergy,coerce,6.5,7.5,video&audio/sentence6_TT_3X.mp4,video&audio/obsess_TT_3X.mp4,portal,obsess,None,,,,,,,,,,,,,,,,,,,,,,,,,,,,,,,,,,,,,,,,,,,,,,,,,,,,,,,,,,,0,1,1,17,,,,,,,,,,,,,,,,None,,,,,,,,,,,,,,,,,,,,,,,,,None, obsess,"['o', 'b', 's', 'e', 's', 's', 'return']","[0.5331113999709487, 0.8047525999136269, 0.988806499983184, 1.1886571999639273, 1.4048212999477983, 1.5329896999755874, 1.7008605999872088]",,,,25,001,B,2023_Feb_15_1645,student_TT_local,2021.1.4,48.02273590514534,
,None,None,None,None,None,None,None,None,None,None,shrewd,mirage,19.5,20.5,video&audio/Sentence1_touch_edited.mp4,video&audio/covert_touch_edited.mp4,revoke,covert,None,,,,,,,,,,,,,,,,,,,,,,,,,,,,,,,,,,,,,,,,,,,,,,,,,,,,,,,,,,,0,2,2,6,,,,,,,,,,,,,,,,None,,,,,,,,,,,,,,,,,,,,,,,,,None, covert,"['c', 'o', 'v', 'e', 'r', 't', 'return']","[0.7004106000531465, 0.8843090001028031, 1.0525822000345215, 1.30059830006212, 1.476346200099215, 1.6846571000060067, 1.9084566000383347]",,,,25,001,B,2023_Feb_15_1645,student_TT_local,2021.1.4,48.02273590514534,
,None,None,None,None,None,None,None,None,None,None,feudal,impose,6.5,7.5,video&audio/sentence3_TT_3X.mp4,video&audio/subdue_TT_3X.mp4,matron,subdue,None,,,,,,,,,,,,,,,,,,,,,,,,,,,,,,,,,,,,,,,,,,,,,,,,,,,,,,,,,,,0,3,3,26,,,,,,,,,,,,,,,,None,,,,,,,,,,,,,,,,,,,,,,,,,None, subdue,"['s', 'u', 'b', 'd', 'u', 'e', 'return']","[0.894063499988988, 1.0780439999653026, 1.2858734999317676, 1.5018526999047026, 1.6305991999106482, 1.7578904000110924, 2.2141040000133216]",,,,25,001,B,2023_Feb_15_1645,student_TT_local,2021.1.4,48.02273590514534,
,None,None,None,None,None,None,None,None,None,None,girdle,manure,6.5,7.5,video&audio/sentence6_TT_3X.mp4,video&audio/pulpit_TT_3X.mp4,linear,pulpit,None,,,,,,,,,,,,,,,,,,,,,,,,,,,,,,,,,,,,,,,,,,,,,,,,,,,,,,,,,,,0,4,4,23,,,,,,,,,,,,,,,,None,,,,,,,,,,,,,,,,,,,,,,,,,None, pulpit,"['p', 'u', 'k', 'backspace', 'l', 'bracketleft', 'backspace', 'p', 'i', 't', 'return']","[0.7770600999938324, 1.0009297999786213, 1.2570169999962673, 1.7771911999443546, 2.1774257000070065, 2.345049099996686, 3.2330737999873236, 3.5209869999671355, 3.737113400013186, 3.9689798000035807, 4.1931911000283435]",,,,25,001,B,2023_Feb_15_1645,student_TT_local,2021.1.4,48.02273590514534,
,None,None,None,None,None,None,None,None,None,None,innate,critic,19.5,20.5,video&audio/Sentence1_touch_edited.mp4,video&audio/hippie_touch_edited.mp4,tamper,hippie,None,,,,,,,,,,,,,,,,,,,,,,,,,,,,,,,,,,,,,,,,,,,,,,,,,,,,,,,,,,,0,5,5,12,,,,,,,,,,,,,,,,None,,,,,,,,,,,,,,,,,,,,,,,,,None, hippie,"['h', 'i', 'p', 'p', 'i', 'e', 'return']","[0.6337131001055241, 0.8417005001101643, 1.0257748001022264, 1.2096621000673622, 1.4664302000310272, 1.6577518000267446, 1.8897195000899956]",,,,25,001,B,2023_Feb_15_1645,student_TT_local,2021.1.4,48.02273590514534,
,None,None,None,None,None,None,None,None,None,None,trench,fodder,6.5,7.5,video&audio/sentence4_TT_3X.mp4,video&audio/subtle_TT_3X.mp4,ethnic,subtle,None,,,,,,,,,,,,,,,,,,,,,,,,,,,,,,,,,,,,,,,,,,,,,,,,,,,,,,,,,,,0,6,6,27,,,,,,,,,,,,,,,,None,,,,,,,,,,,,,,,,,,,,,,,,,None, subtle,"['s', 'u', 'b', 't', 'l', 'semicolon', 'e', 'backspace', 'backspace', 'e', 'return']","[0.7789297999115661, 0.9790842999937013, 1.1470968999201432, 1.3629039999796078, 1.5548163999337703, 1.5629401999758556, 1.722949199960567, 2.2348936999915168, 2.3788783999625593, 2.842895600013435, 3.6270847999257967]",,,,25,001,B,2023_Feb_15_1645,student_TT_local,2021.1.4,48.02273590514534,
,None,None,None,None,None,None,None,None,None,None,oblige,infirm,19.5,20.5,video&audio/Sentence4_touch_edited.mp4,video&audio/cervix_touch_edited.mp4,mystic,cervix,None,,,,,,,,,,,,,,,,,,,,,,,,,,,,,,,,,,,,,,,,,,,,,,,,,,,,,,,,,,,0,7,7,3,,,,,,,,,,,,,,,,['c'],,,,,,,,,,,,,,,,,,,,,,,,,None, cervix,"['c', 'e', 'r', 'v', 'i', 'a', 's', 'backspace', 'x', 'return']","[0.5610238000517711, 0.8650576999643818, 1.0010523999808356, 1.361198400030844, 1.5211076999548823, 1.7136363999452442, 1.7210720999864861, 2.217394500039518, 2.865040499949828, 3.4653549999929965]",[0.7086721000960097],,,25,001,B,2023_Feb_15_1645,student_TT_local,2021.1.4,48.02273590514534,
,None,None,None,None,None,None,None,None,None,None,induce,savant,6.5,7.5,video&audio/sentence4_TT_3X.mp4,video&audio/plasma_TT_3X.mp4,mussel,plasma,None,,,,,,,,,,,,,,,,,,,,,,,,,,,,,,,,,,,,,,,,,,,,,,,,,,,,,,,,,,,0,8,8,21,,,,,,,,,,,,,,,,None,,,,,,,,,,,,,,,,,,,,,,,,,None, plasma,"['p', 'l', 'a', 's', 'm', 'a', 'return']","[0.780604200088419, 0.9807705000275746, 1.2287856000475585, 1.4686111999908462, 1.62853330001235, 1.7569960000691935, 1.9655777000589296]",,,,25,001,B,2023_Feb_15_1645,student_TT_local,2021.1.4,48.02273590514534,
,None,None,None,None,None,None,None,None,None,None,befall,goblet,19.5,20.5,video&audio/Sentence3_touch_edited.mp4,video&audio/devise_touch_edited.mp4,ration,devise,None,,,,,,,,,,,,,,,,,,,,,,,,,,,,,,,,,,,,,,,,,,,,,,,,,,,,,,,,,,,0,9,9,8,,,,,,,,,,,,,,,,None,,,,,,,,,,,,,,,,,,,,,,,,,None, devise,"['d', 'e', 'v', 'i', 's', 'e', 'return']","[0.6796623000409454, 0.8636108000064269, 1.1036216000793502, 1.263645700062625, 1.4239341000793502, 1.6076406000647694, 1.791807100060396]",,,,25,001,B,2023_Feb_15_1645,student_TT_local,2021.1.4,48.02273590514534,
,"Remember to type as QUICKLY and ACCURATELY as possible after the 'get ready' prompt.

Ask the experimenter any questions now. Please put on the headphones.

You will get one practice trial. Press 'enter/return' when you are ready to start the practice.","Remember to type as QUICKLY and ACCURATELY as you can after the 'get ready' prompt.

Ask the experimenter any questions now. Please put on the headphones.

You will get one practice trial. Press 'enter/return' when you are ready to start the practice.",video&audio/Example_AOMI_total.png,1.8,0.7,None,None,None,None,None,oppose,jargon,19.5,20.5,video&audio/Sentence3_touch_edited.mp4,video&audio/botany_touch_edited.mp4,ghetto,botany,None,,,,,,,,,,,,,,,,,,,,,,,,,,,,,,,,,,,,,,,,,,,,,,,,,,,,,,,,,,,0,10,10,2,,,,,,,,,,,,,,,,None,,,,,,,,,,,,,,,,,,,,,,,,,None, botany,"['b', 'o', 't', 'a', 's', 'n', 'y', 'backspace', 'backspace', 'backspace', 'n', 'y', 'return']","[0.8755141999572515, 1.0035801000194624, 1.2756205999758095, 1.475914299953729, 1.4835427000652999, 1.6196013999870047, 1.8039139000466093, 2.0675169000169262, 2.2679950000019744, 2.4117351999739185, 2.9156135000521317, 3.4277867999626324, 3.955697700032033]",,,,25,001,B,2023_Feb_15_1645,student_TT_local,2021.1.4,48.02273590514534,
,None,None,None,None,None,None,None,None,None,None,primal,novice,19.5,20.5,video&audio/Sentence5_touch_edited.mp4,video&audio/confer_touch_edited.mp4,entail,confer,None,,,,,,,,,,,,,,,,,,,,,,,,,,,,,,,,,,,,,,,,,,,,,,,,,,,,,,,,,,,0,11,11,4,,,,,,,,,,,,,,,,None,,,,,,,,,,,,,,,,,,,,,,,,,None, confer,"['c', 'o', 'n', 'f', 'e', 'r', 'return']","[0.9556607999838889, 1.1151363999815658, 1.339630200061947, 1.507202300010249, 1.7231777000706643, 1.8271069000475109, 2.0352240999927744]",,,,25,001,B,2023_Feb_15_1645,student_TT_local,2021.1.4,48.02273590514534,
,None,None,None,None,None,None,None,None,None,None,meddle,musket,6.5,7.5,video&audio/sentence2_TT_3X.mp4,video&audio/solemn_TT_3X.mp4,divert,solemn,None,,,,,,,,,,,,,,,,,,,,,,,,,,,,,,,,,,,,,,,,,,,,,,,,,,,,,,,,,,,0,12,12,25,,,,,,,,,,,,,,,,None,,,,,,,,,,,,,,,,,,,,,,,,,None, solemn,"['s', 'o', 'o', 'l', 'e', 'm', 'backspace', 'backspace', 'backspace', 'backspace', 'l', 'e', 'm', 'n', 'return']","[0.7704417000059038, 0.8985802000388503, 1.098557599936612, 1.106693399953656, 1.2991566000273451, 1.506800499977544, 1.8266683999681845, 1.9867706999648362, 2.114465399994515, 2.4666769000468776, 2.802658800035715, 2.978480099933222, 3.1385508000385016, 3.2990607999963686, 3.8425639999331906]",,,,25,001,B,2023_Feb_15_1645,student_TT_local,2021.1.4,48.02273590514534,
,None,None,None,None,None,None,None,None,None,None,tandem,potent,6.5,7.5,video&audio/sentence4_TT_3X.mp4,video&audio/malady_TT_3X.mp4,origin,malady,None,,,,,,,,,,,,,,,,,,,,,,,,,,,,,,,,,,,,,,,,,,,,,,,,,,,,,,,,,,,0,13,13,15,,,,,,,,,,,,,,,,None,,,,,,,,,,,,,,,,,,,,,,,,,None, malady,"['m', 'a', 'l', 'a', 'd', 'y', 'return']","[0.7667717000003904, 0.9590421000029892, 1.0391097000101581, 1.183261299971491, 1.374811299960129, 1.5027687000110745, 2.0390628000022843]",,,,25,001,B,2023_Feb_15_1645,student_TT_local,2021.1.4,48.02273590514534,
,None,None,None,None,None,None,None,None,None,None,fungal,brazen,6.5,7.5,video&audio/sentence5_TT_3X.mp4,video&audio/matrix_TT_3X.mp4,mucous,matrix,None,,,,,,,,,,,,,,,,,,,,,,,,,,,,,,,,,,,,,,,,,,,,,,,,,,,,,,,,,,,0,14,14,22,,,,,,,,,,,,,,,,None,,,,,,,,,,,,,,,,,,,,,,,,,None, matrix,"['m', 'a', 't', 'r', 'i', 'x', 'return']","[0.5984095999738201, 0.7426567999646068, 0.9987248999532312, 1.0946409000316635, 1.311029399977997, 1.4544406000059098, 1.7184088999638334]",,,,25,001,B,2023_Feb_15_1645,student_TT_local,2021.1.4,48.02273590514534,
,None,None,None,None,None,None,None,None,None,None,caviar,pursue,6.5,7.5,video&audio/sentence3_TT_3X.mp4,video&audio/piston_TT_3X.mp4,shrill,piston,None,,,,,,,,,,,,,,,,,,,,,,,,,,,,,,,,,,,,,,,,,,,,,,,,,,,,,,,,,,,0,15,15,20,,,,,,,,,,,,,,,,None,,,,,,,,,,,,,,,,,,,,,,,,,None, piston,"['p', 'i', 's', 't', 'o', 'n', 'return']","[0.3944378000451252, 0.5944941000780091, 0.7708832001080737, 0.9864450000459328, 1.0904084000503644, 1.1703430000925437, 1.6585012000286952]",,,,25,001,B,2023_Feb_15_1645,student_TT_local,2021.1.4,48.02273590514534,
,None,None,None,None,None,None,None,None,None,None,hamlet,parole,19.5,20.5,video&audio/Sentence4_touch_edited.mp4,video&audio/falter_touch_edited.mp4,shroud,falter,None,,,,,,,,,,,,,,,,,,,,,,,,,,,,,,,,,,,,,,,,,,,,,,,,,,,,,,,,,,,0,16,16,9,,,,,,,,,,,,,,,,None,,,,,,,,,,,,,,,,,,,,,,,,,None, falter,"['f', 'a', 'l', 't', 'e', 'r', 'return']","[0.8212607000023127, 1.2056555999442935, 1.3494136999361217, 1.6452784000430256, 1.8212783000199124, 1.8851908999495208, 2.149333299952559]",,,,25,001,B,2023_Feb_15_1645,student_TT_local,2021.1.4,48.02273590514534,
,None,None,None,None,None,None,None,None,None,None,hearth,sonnet,19.5,20.5,video&audio/Sentence3_touch_edited.mp4,video&audio/kipper_touch_edited.mp4,herbal,kipper,None,,,,,,,,,,,,,,,,,,,,,,,,,,,,,,,,,,,,,,,,,,,,,,,,,,,,,,,,,,,0,17,17,14,,,,,,,,,,,,,,,,None,,,,,,,,,,,,,,,,,,,,,,,,,None, kipper,"['k', 'i', 'p', 'p', 'e', 'r', 'return']","[0.8372022999683395, 1.037360000074841, 1.2131854000035673, 1.3495848000748083, 1.5414035000139847, 1.629255500040017, 1.8131638000486419]",,,,25,001,B,2023_Feb_15_1645,student_TT_local,2021.1.4,48.02273590514534,
,None,None,None,None,None,None,None,None,None,None,septic,quarry,19.5,20.5,video&audio/Sentence2_touch_edited.mp4,video&audio/jackal_touch_edited.mp4,ordain,jackal,None,,,,,,,,,,,,,,,,,,,,,,,,,,,,,,,,,,,,,,,,,,,,,,,,,,,,,,,,,,,0,18,18,13,,,,,,,,,,,,,,,,None,,,,,,,,,,,,,,,,,,,,,,,,,None, jackal,"['j', 'a', 'c', 'k', 'a', 'l', 'return']","[0.8621343999402598, 1.0620348999509588, 1.2783365999348462, 1.422116499976255, 1.5102583999978378, 1.6541467999340966, 1.9662960999412462]",,,,25,001,B,2023_Feb_15_1645,student_TT_local,2021.1.4,48.02273590514534,
,None,None,None,None,None,None,None,None,None,None,delude,strife,19.5,20.5,video&audio/Sentence2_touch_edited.mp4,video&audio/debtor_touch_edited.mp4,galley,debtor,None,,,,,,,,,,,,,,,,,,,,,,,,,,,,,,,,,,,,,,,,,,,,,,,,,,,,,,,,,,,0,19,19,7,,,,,,,,,,,,,,,,None,,,,,,,,,,,,,,,,,,,,,,,,,None, debtor,"['d', 'e', 'b', 't', 'o', 'r', 'return']","[0.8570726000471041, 1.0571425999514759, 1.217333500040695, 1.3371126999845728, 1.473167199990712, 1.657667399966158, 2.073255200055428]",,,,25,001,B,2023_Feb_15_1645,student_TT_local,2021.1.4,48.02273590514534,
,None,None,None,None,None,None,None,None,None,None,mangle,satire,6.5,7.5,video&audio/sentence1_TT_3X.mp4,video&audio/ritual_TT_3X.mp4,warble,ritual,None,,,,,,,,,,,,,,,,,,,,,,,,,,,,,,,,,,,,,,,,,,,,,,,,,,,,,,,,,,,0,20,20,24,,,,,,,,,,,,,,,,None,,,,,,,,,,,,,,,,,,,,,,,,,None, ritual,"['r', 'i', 't', 'u', 's', 'a', 'semicolon', 'backspace', 'backspace', 'backspace', 'a', 'l', 'return']","[0.7038488999241963, 0.8958169999532402, 1.047918300027959, 1.1918591000139713, 1.319911599974148, 1.344492399948649, 1.4639176999917254, 1.847974899923429, 2.039711399935186, 2.1919085999252275, 2.3838689000112936, 2.5199070000089705, 3.0479331000242382]",,,,25,001,B,2023_Feb_15_1645,student_TT_local,2021.1.4,48.02273590514534,
,None,None,None,None,None,None,None,None,None,None,zephyr,sherry,19.5,20.5,video&audio/Sentence5_touch_edited.mp4,video&audio/forage_touch_edited.mp4,fusion,forage,None,,,,,,,,,,,,,,,,,,,,,,,,,,,,,,,,,,,,,,,,,,,,,,,,,,,,,,,,,,,0,21,21,10,,,,,,,,,,,,,,,,None,,,,,,,,,,,,,,,,,,,,,,,,,None, forage,"['f', 'o', 'r', 'a', 'g', 'e', 'return']","[0.5887569999322295, 0.7573493999661878, 0.900635699974373, 1.0766447999048978, 1.2526132999919355, 1.3806821999605745, 1.9087186999386176]",,,,25,001,B,2023_Feb_15_1645,student_TT_local,2021.1.4,48.02273590514534,
,None,None,None,None,None,None,None,None,None,None,joiner,revolt,19.5,20.5,video&audio/Sentence6_touch_edited.mp4,video&audio/cortex_touch_edited.mp4,apathy,cortex,None,,,,,,,,,,,,,,,,,,,,,,,,,,,,,,,,,,,,,,,,,,,,,,,,,,,,,,,,,,,0,22,22,5,,,,,,,,,,,,,,,,None,,,,,,,,,,,,,,,,,,,,,,,,,None, cortex,"['c', 'o', 'r', 't', 'e', 'x', 'return']","[0.8137643999652937, 0.9500358999939635, 1.1584468999644741, 1.3578973999246955, 1.4699621999170631, 1.7261346000013873, 1.9264016000088304]",,,,25,001,B,2023_Feb_15_1645,student_TT_local,2021.1.4,48.02273590514534,
,"While you watch the video, imagine yourself typing the word on the screen, like how you did in the imagery practice. While you watch the video and imagine this, rest your hands on your keyboard but DO NOT type until AFTER you see the typing prompt.

Press 'enter/return' to go to the next page.","While watching the video, imagine yourself typing the word on the screen, like how you did in the imagery practice. While you watch the video and imagine this, rest your hands on your keyboard but DO NOT type until AFTER you see the typing prompt.

Press 'enter/return' to go to the next page.",video&audio/Example_AOMI_imagine.png,1.6,1,butter,6.5,7.5,video&audio/amount_TT_3X.mp4,video&audio/butter_TT_3X.mp4,metric,plight,19.5,20.5,video&audio/Sentence2_touch_edited.mp4,video&audio/belfry_touch_edited.mp4,eatery,belfry,2 = AOMIspec,,,,,,,,,,,,,,,,,,,,,,,,,,,,,,,,,,,,,,,,,,,,,,,,,,,,,,,,,,,0,23,23,1,,,,,,,,,,,,,,,,None,,,,,,,,,,,,,,,,,,,,,,,,,None, belfry,"['b', 'e', 'l', 'f', 'r', 'y', 'return']","[1.0357271999819204, 1.2359189999988303, 1.4198712999932468, 1.5719411000609398, 1.7641169000416994, 2.0281760999932885, 2.5719035000074655]",,,,25,001,B,2023_Feb_15_1645,student_TT_local,2021.1.4,48.02273590514534,
,None,None,None,None,None,None,None,None,None,None,jailer,deduct,6.5,7.5,video&audio/sentence5_TT_3X.mp4,video&audio/neural_TT_3X.mp4,nettle,neural,None,,,,,,,,,,,,,,,,,,,,,,,,,,,,,,,,,,,,,,,,,,,,,,,,,,,,,,,,,,,0,24,24,16,,,,,,,,,,,,,,,,None,,,,,,,,,,,,,,,,,,,,,,,,,None, neural,"['n', 'e', 'u', 'r', 'a', 'l', 'return']","[0.7098267999244854, 0.877636699937284, 1.0376206999644637, 1.165729400003329, 1.2857466000132263, 1.4056510999798775, 1.861800399958156]",,,,25,001,B,2023_Feb_15_1645,student_TT_local,2021.1.4,48.02273590514534,
,"This is Section 2.

In this section, your task will be the same as before - that is, to type the word you see on the screen AFTER the typing prompt. However, rather than just seeing the word before typing, you will also see a video of someone typing different words to what you will need to type at different speeds. 

Press 'enter/return' to go to the next page.","This is Section 4. 

In this section, your task will be the same as before - that is, to type the word you see on the screen after the typing prompt. You will see a video again, like in Section 2, only this time, the video will show someone the same word that you must type at different speeds. 

Press 'enter/return' to go to the next page.",video&audio/Example_AOMI_layout.png,1.6,0.6,afford,19.5,20.5,video&audio/amount_touch_edited.mp4,video&audio/afford_touch_edited.mp4,hinder,vanity,19.5,20.5,video&audio/Sentence1_touch_edited.mp4,video&audio/ascend_touch_edited.mp4,breach,ascend,1 = AOMIgen,,,,,,,,,,,,,,,,,,,,,,,,,,,,,,,,,,,,,,,,,,,,,,,,,,,,,,,,,,,0,25,25,0,,,,,,,,,,,,,,,,None,,,,,,,,,,,,,,,,,,,,,,,,,None, ascend,"['a', 's', 'c', 'e', 'n', 'd', 'return']","[0.6693573000375181, 0.8374788000946864, 1.0536009001079947, 1.2057850001147017, 1.357350500067696, 1.4536132001085207, 1.6692591001046821]",,,,25,001,B,2023_Feb_15_1645,student_TT_local,2021.1.4,48.02273590514534,
,None,None,None,None,None,None,None,None,None,None,patent,binder,19.5,20.5,video&audio/Sentence6_touch_edited.mp4,video&audio/frugal_touch_edited.mp4,defame,frugal,None,,,,,,,,,,,,,,,,,,,,,,,,,,,,,,,,,,,,,,,,,,,,,,,,,,,,,,,,,,,0,26,26,11,,,,,,,,,,,,,,,,None,,,,,,,,,,,,,,,,,,,,,,,,,None, frugal,"['f', 'r', 'u', 'g', 'a', 'l', 'return']","[1.1649873000569642, 1.3493288999889046, 1.605147200054489, 1.7569864999968559, 1.949428700027056, 2.1333675000350922, 2.66113760008011]",,,,25,001,B,2023_Feb_15_1645,student_TT_local,2021.1.4,48.02273590514534,
,None,None,None,None,None,None,None,None,None,None,campus,legion,6.5,7.5,video&audio/sentence6_TT_3X.mp4,video&audio/virile_TT_3X.mp4,allure,virile,None,,,,,,,,,,,,,,,,,,,,,,,,,,,,,,,,,,,,,,,,,,,,,,,,,,,,,,,,,,,0,27,27,29,,,,,,,,,,,,,,,,None,,,,,,,,,,,,,,,,,,,,,,,,,None, virile,"['v', 'i', 'r', 'i', 'l', 'e', 'return']","[1.707239499897696, 1.8921975999837741, 2.1470030999043956, 2.299107800005004, 2.5150614999001846, 2.651009199908003, 3.243068899959326]",,,,25,001,B,2023_Feb_15_1645,student_TT_local,2021.1.4,48.02273590514534,
,None,None,None,None,None,None,None,None,None,None,output,convoy,6.5,7.5,video&audio/sentence1_TT_3X.mp4,video&audio/parcel_TT_3X.mp4,uphold,parcel,None,,,,,,,,,,,,,,,,,,,,,,,,,,,,,,,,,,,,,,,,,,,,,,,,,,,,,,,,,,,0,28,28,18,,,,,,,,,,,,,,,,None,,,,,,,,,,,,,,,,,,,,,,,,,None, parcel,"['p', 'a', 'r', 'c', 'e', 'l', 'return']","[0.5554826000006869, 0.7714503000024706, 0.9715076999273151, 1.1715088000055403, 1.3234231999376789, 1.4756607000017539, 1.6595669999951497]",,,,25,001,B,2023_Feb_15_1645,student_TT_local,2021.1.4,48.02273590514534,
,None,None,None,None,None,None,None,None,None,None,cobble,murmur,6.5,7.5,video&audio/sentence2_TT_3X.mp4,video&audio/picket_TT_3X.mp4,export,picket,None,,,,,,,,,,,,,,,,,,,,,,,,,,,,,,,,,,,,,,,,,,,,,,,,,,,,,,,,,,,0,29,29,19,,,,,,,,,,,,,,,,None,,,,,,,,,,,,,,,,,,,,,,,,,None, picket,"['p', 'i', 'c', 'k', 'e', 't', 'return']","[0.3566287000430748, 0.6047862000996247, 0.7727674000198022, 0.8767416001064703, 1.044676800025627, 1.1647296000737697, 1.5725779000204057]",,,,25,001,B,2023_Feb_15_1645,student_TT_local,2021.1.4,48.02273590514534,
,,,,,,,,,,,,,,,,,,,,typingRatingScale.png,"How would you rate your typing performance in the previous section?

Press a number on your keyboard according to the rating scale below to give your answer. Your first answer will be accepted.",,,,,,,,,,,,,,,,,,,,,,,,,,,,,,,,,,,,,,,,,,,,,,,,,,,,,,,,,,,,,0,0,0,0,,,,,,,,,,,,,,,,,,,,,,,,,,,,,,,,,,,,,,,,,,['4'],[4.954106000019237],25,001,B,2023_Feb_15_1645,student_TT_local,2021.1.4,48.02273590514534,
,,,,,,,,,,,,,,,,,,,,visualImageryScale.png,"While imagining yourself typing, how clear was your visual image?

Press a number on your keyboard according to the rating scale below to give your answer. Your first answer will be accepted.",,,,,,,,,,,,,,,,,,,,,,,,,,,,,,,,,,,,,,,,,,,,,,,,,,,,,,,,,,,,,0,1,1,1,,,,,,,,,,,,,,,,,,,,,,,,,,,,,,,,,,,,,,,,,,['3'],[9.478430999908596],25,001,B,2023_Feb_15_1645,student_TT_local,2021.1.4,48.02273590514534,
,,,,,,,,,,,,,,,,,,,,kinestheticImageryScale.png,"While imagining yourself typing, how intense were the sensations associated with the imagined movement?

Press a number on your keyboard according to the rating scale below to give your answer. Your first answer will be accepted.",,,,,,,,,,,,,,,,,,,,,,,,,,,,,,,,,,,,,,,,,,,,,,,,,,,,,,,,,,,,,0,2,2,2,,,,,,,,,,,,,,,,,,,,,,,,,,,,,,,,,,,,,,,,,,['3'],[4.245939099928364],25,001,B,2023_Feb_15_1645,student_TT_local,2021.1.4,48.02273590514534,
