pracWords,instr_1,instr_2,AOMI_Ima,AOMI_w,AOMI_h,practiceWords,prac_time,prac_bkgd_time,pracVid_1,pracVid_2,baseline_words,control_words,cont_time,cont_bgkd_time,first_vids,second_vids,AOMIfirst_words,AOMIsecond_words,Order,ratingScale,rateInstr,instructLoop.thisRepN,instructLoop.thisTrialN,instructLoop.thisN,instructLoop.thisIndex,practice_control.thisRepN,practice_control.thisTrialN,practice_control.thisN,practice_control.thisIndex,trials_1.thisRepN,trials_1.thisTrialN,trials_1.thisN,trials_1.thisIndex,baseRateLoop.thisRepN,baseRateLoop.thisTrialN,baseRateLoop.thisN,baseRateLoop.thisIndex,AOMIinstrLoop1.thisRepN,AOMIinstrLoop1.thisTrialN,AOMIinstrLoop1.thisN,AOMIinstrLoop1.thisIndex,AOMIpracLoop.thisRepN,AOMIpracLoop.thisTrialN,AOMIpracLoop.thisN,AOMIpracLoop.thisIndex,trials_2.thisRepN,trials_2.thisTrialN,trials_2.thisN,trials_2.thisIndex,AOMI1rateLoop.thisRepN,AOMI1rateLoop.thisTrialN,AOMI1rateLoop.thisN,AOMI1rateLoop.thisIndex,contInstrLoop.thisRepN,contInstrLoop.thisTrialN,contInstrLoop.thisN,contInstrLoop.thisIndex,contPracLoop.thisRepN,contPracLoop.thisTrialN,contPracLoop.thisN,contPracLoop.thisIndex,trials_3.thisRepN,trials_3.thisTrialN,trials_3.thisN,trials_3.thisIndex,contRateLoop.thisRepN,contRateLoop.thisTrialN,contRateLoop.thisN,contRateLoop.thisIndex,AOMIinstrLoop2.thisRepN,AOMIinstrLoop2.thisTrialN,AOMIinstrLoop2.thisN,AOMIinstrLoop2.thisIndex,AOMIpracLoop2.thisRepN,AOMIpracLoop2.thisTrialN,AOMIpracLoop2.thisN,AOMIpracLoop2.thisIndex,trials_4.thisRepN,trials_4.thisTrialN,trials_4.thisN,trials_4.thisIndex,AOMI2rateLoop.thisRepN,AOMI2rateLoop.thisTrialN,AOMI2rateLoop.thisN,AOMI2rateLoop.thisIndex,pracBkgdKeys.keys,pracKeys.keys,pracKeys.rt,baseBkgdKeys.keys,base_typedWord,baseKeys.keys,baseKeys.rt,baseBkgdKeys.rt,baseRateTypeKey.keys,baseRateTypeKey.rt,AOMI1_BkgdKeys.keys,AOMI_promptBkgdKeys.keys,AOMI1pracKeys.keys,AOMI1pracKeys.rt,AOMI1bkdgKeys.keys,AOMI1_typedWord,AOMI1keys.keys,AOMI1keys.rt,AOMI1rateTypeKey.keys,AOMI1rateTypeKey.rt,polygon_prac.started,polygon_prac.stopped,contBkgdKeys_prac.keys,contPrac_typedWord,contKeys_prac.keys,contKeys_prac.rt,polygon.started,polygon.stopped,contBkgdKeys.keys,cont_typedWord,contKeys.keys,contKeys.rt,contTypeKey.keys,contTypeKey.rt,bkgdkeys_prac2.keys,bkgdKeys4.keys,AOMI2_typedWord,keyboardCom4.keys,keyboardCom4.rt,AOMI2typeKey.keys,AOMI2typeKey.rt,participant,session,group,date,expName,psychopyVersion,frameRate,
replay,,,,,,,,,,,,,,,,,,,,,,,,,,0,0,0,1,,,,,,,,,,,,,,,,,,,,,,,,,,,,,,,,,,,,,,,,,,,,,,,,,,,,,,,,,None,"['r', 'e', 'p', 'l', 'a', 'y', 'return']","[1.7839727000100538, 1.9600257000420243, 2.103833800065331, 2.216272799996659, 2.4398297000443563, 3.4881577000487596, 4.1199633000651374]",,,,,,,,,,,,,,,,,,,,,,,,,,,,,,,,,,,,,,,26,001,H,2023_Feb_16_1347,student_TT_local,2021.1.4,47.74527702749635,
update,,,,,,,,,,,,,,,,,,,,,,,,,,0,1,1,2,,,,,,,,,,,,,,,,,,,,,,,,,,,,,,,,,,,,,,,,,,,,,,,,,,,,,,,,,None,"['u', 'p', 'd', 'a', 't', 'e', 'return']","[0.7901401000563055, 1.150438499986194, 1.3904787000501528, 1.5021411000052467, 1.6543768000556156, 1.8066386999562383, 2.278087400016375]",,,,,,,,,,,,,,,,,,,,,,,,,,,,,,,,,,,,,,,26,001,H,2023_Feb_16_1347,student_TT_local,2021.1.4,47.74527702749635,
height,,,,,,,,,,,,,,,,,,,,,,,,,,0,2,2,0,,,,,,,,,,,,,,,,,,,,,,,,,,,,,,,,,,,,,,,,,,,,,,,,,,,,,,,,,None,"['h', 'e', 'i', 'g', 'h', 't', 'return']","[0.6771709999302402, 1.2772427999880165, 1.437169099925086, 1.645170099916868, 1.829339599935338, 2.0294796999078244, 2.741470400011167]",,,,,,,,,,,,,,,,,,,,,,,,,,,,,,,,,,,,,,,26,001,H,2023_Feb_16_1347,student_TT_local,2021.1.4,47.74527702749635,
,"While you watch the video, imagine yourself typing the word on the screen, like how you did in the imagery practice. While you watch the video and imagine this, rest your hands on your keyboard but DO NOT type until AFTER you see the typing prompt.

Press 'enter/return' to go to the next page.","While watching the video, imagine yourself typing the word on the screen, like how you did in the imagery practice. While you watch the video and imagine this, rest your hands on your keyboard but DO NOT type until AFTER you see the typing prompt.

Press 'enter/return' to go to the next page.",video&audio/Example_AOMI_imagine.png,1.6,1,butter,6.5,7.5,video&audio/amount_TT_3X.mp4,video&audio/butter_TT_3X.mp4,metric,eatery,6.5,7.5,video&audio/sentence2_TT_3X.mp4,video&audio/plight_TT_3X.mp4,ascend,plight,2 = AOMIspec,,,,,,,,,,,0,0,0,1,,,,,,,,,,,,,,,,,,,,,,,,,,,,,,,,,,,,,,,,,,,,,,,,,,,,,,,,None, metric,"['m', 'e', 't', 'r', 'i', 'c', 'return']","[0.5588578999741003, 0.710820599924773, 0.9828914999961853, 1.1753002000041306, 1.3670247999252751, 1.5112152999499813, 2.198854999965988]",,,,,,,,,,,,,,,,,,,,,,,,,,,,,,,,,,,26,001,H,2023_Feb_16_1347,student_TT_local,2021.1.4,47.74527702749635,
,None,None,None,None,None,None,None,None,None,None,zephyr,fusion,6.5,7.5,video&audio/sentence5_TT_3X.mp4,video&audio/critic_TT_3X.mp4,obsess,critic,None,,,,,,,,,,,0,1,1,10,,,,,,,,,,,,,,,,,,,,,,,,,,,,,,,,,,,,,,,,,,,,,,,,,,,,,,,,None, zephyr,"['z', 'e', 'p', 'h', 'y', 'r', 'return']","[0.3503580999094993, 0.6866555999731645, 0.8944544999394566, 1.2543500999454409, 1.4388270999770612, 2.5265786999370903, 3.134443399962038]",,,,,,,,,,,,,,,,,,,,,,,,,,,,,,,,,,,26,001,H,2023_Feb_16_1347,student_TT_local,2021.1.4,47.74527702749635,
,None,None,None,None,None,None,None,None,None,None,septic,ordain,19.5,20.5,video&audio/Sentence2_touch_edited.mp4,video&audio/potent_touch_edited.mp4,neural,potent,None,,,,,,,,,,,0,2,2,13,,,,,,,,,,,,,,,,,,,,,,,,,,,,,,,,,,,,,,,,,,,,,,,,,,,,,,,,None, septic,"['s', 'e', 'p', 't', 'i', 'c', 'return']","[0.381959900027141, 0.5099886000389233, 0.7100327999796718, 0.9019796999637038, 1.1099680999759585, 1.2299583000130951, 1.6699823000235483]",,,,,,,,,,,,,,,,,,,,,,,,,,,,,,,,,,,26,001,H,2023_Feb_16_1347,student_TT_local,2021.1.4,47.74527702749635,
,None,None,None,None,None,None,None,None,None,None,oblige,mystic,6.5,7.5,video&audio/sentence4_TT_3X.mp4,video&audio/infirm_TT_3X.mp4,pulpit,infirm,None,,,,,,,,,,,0,3,3,3,,,,,,,,,,,,,,,,,,,,,,,,,,,,,,,,,,,,,,,,,,,,,,,,,,,,,,,,None, oblige,"['o', 'b', 'l', 'i', 'g', 'e', 'return']","[0.6261455999920145, 0.7701179999858141, 0.9222247999859974, 1.2023286999901757, 1.5381900999927893, 1.698458099970594, 2.2982270000502467]",,,,,,,,,,,,,,,,,,,,,,,,,,,,,,,,,,,26,001,H,2023_Feb_16_1347,student_TT_local,2021.1.4,47.74527702749635,
,None,None,None,None,None,None,None,None,None,None,feudal,matron,19.5,20.5,video&audio/Sentence3_touch_edited.mp4,video&audio/legion_touch_edited.mp4,subdue,legion,None,,,,,,,,,,,0,4,4,26,,,,,,,,,,,,,,,,,,,,,,,,,,,,,,,,,,,,,,,,,,,,,,,,,,,,,,,,None, feudal,"['f', 'e', 'u', 'd', 'a', 'l', 'return']","[0.008231300045736134, 0.31230009999126196, 0.46430220000911504, 0.6803109999746084, 0.8484783000312746, 0.9922383000375703, 1.4164526000386104]",,,,,,,,,,,,,,,,,,,,,,,,,,,,,,,,,,,26,001,H,2023_Feb_16_1347,student_TT_local,2021.1.4,47.74527702749635,
,None,None,None,None,None,None,None,None,None,None,mangle,warble,19.5,20.5,video&audio/Sentence1_touch_edited.mp4,video&audio/fodder_touch_edited.mp4,devise,fodder,None,,,,,,,,,,,0,5,5,24,,,,,,,,,,,,,,,,,,,,,,,,,,,,,,,,,,,,,,,,,,,,,,,,,,,,,,,,None, mangle,"['m', 'a', 'n', 'g', 'l', 'e', 'return']","[0.5169848999939859, 0.6608307999558747, 0.8051851999480277, 1.1729662000434473, 1.3328406000509858, 1.4848461999790743, 1.780836999998428]",,,,,,,,,,,,,,,,,,,,,,,,,,,,,,,,,,,26,001,H,2023_Feb_16_1347,student_TT_local,2021.1.4,47.74527702749635,
,None,None,None,None,None,None,None,None,None,None,induce,mussel,19.5,20.5,video&audio/Sentence4_touch_edited.mp4,video&audio/satire_touch_edited.mp4,cortex,satire,None,,,,,,,,,,,0,6,6,21,,,,,,,,,,,,,,,,,,,,,,,,,,,,,,,,,,,,,,,,,,,,,,,,,,,,,,,,None, induce,"['i', 'n', 'd', 'u', 'c', 'e', 'return']","[0.6091178000206128, 0.8250572000397369, 1.0090041999937966, 1.2010001000016928, 1.3132104999385774, 1.641016999958083, 2.1770031999330968]",,,,,,,,,,,,,,,,,,,,,,,,,,,,,,,,,,,26,001,H,2023_Feb_16_1347,student_TT_local,2021.1.4,47.74527702749635,
,None,None,None,None,None,None,None,None,None,None,hamlet,shroud,6.5,7.5,video&audio/sentence4_TT_3X.mp4,video&audio/sherry_TT_3X.mp4,jackal,sherry,None,,,,,,,,,,,0,7,7,9,,,,,,,,,,,,,,,,,,,,,,,,,,,,,,,,,,,,,,,,,,,,,,,,,,,,,,,,None, hamlet,"['h', 'a', 'm', 'l', 'e', 't']","[0.5404213999863714, 0.700627600075677, 0.8362582999980077, 1.0522172000491992, 1.2122178000863642, 1.3882581000216305]",,,,,,,,,,,,,,,,,,,,,,,,,,,,,,,,,,,26,001,H,2023_Feb_16_1347,student_TT_local,2021.1.4,47.74527702749635,
,None,None,None,None,None,None,None,None,None,None,parish,gullet,19.5,20.5,video&audio/Sentence5_touch_edited.mp4,video&audio/manure_touch_edited.mp4,picket,manure,None,,,,,,,,,,,0,8,8,28,,,,,,,,,,,,,,,,,,,,,,,,,,,,,,,,,,,,,,,,,,,,,,,,,,,,,,,,"['p', 'a', 'r']",parish,"['i', 's', 'h', 'backspace', 'backspace', 'backspace', 'backspace', 'p', 'a', 'r', 'i', 's', 'h', 'return']","[0.02976100007072091, 0.18909920006990433, 0.3251506000524387, 1.1253229000139982, 1.221140700043179, 1.3813366000540555, 1.5413037000689656, 2.053191200015135, 2.1811426000203937, 2.3971331000793725, 2.541349600069225, 2.6775437000906095, 2.8294009000528604, 3.2532906000269577]","[2.558061799965799, 2.678173699998297, 2.9181200000457466]",,,,,,,,,,,,,,,,,,,,,,,,,,,,,,,,,,26,001,H,2023_Feb_16_1347,student_TT_local,2021.1.4,47.74527702749635,
,None,None,None,None,None,None,None,None,None,None,caviar,shrill,19.5,20.5,video&audio/Sentence3_touch_edited.mp4,video&audio/brazen_touch_edited.mp4,piston,brazen,None,,,,,,,,,,,0,9,9,20,,,,,,,,,,,,,,,,,,,,,,,,,,,,,,,,,,,,,,,,,,,,,,,,,,,,,,,,None, caviar,"['a', 'v', 'i', 'a', 'r', 'return']","[0.1211843000492081, 0.249163500033319, 0.8490730000194162, 1.5049755000509322, 1.9052368000848219, 2.209228300023824]",,,,,,,,,,,,,,,,,,,,,,,,,,,,,,,,,,,26,001,H,2023_Feb_16_1347,student_TT_local,2021.1.4,47.74527702749635,
,"Remember to type as QUICKLY and ACCURATELY as possible after the 'get ready' prompt.

Ask the experimenter any questions now. Please put on the headphones.

You will get one practice trial. Press 'enter/return' when you are ready to start the practice.","Remember to type as QUICKLY and ACCURATELY as you can after the 'get ready' prompt.

Ask the experimenter any questions now. Please put on the headphones.

You will get one practice trial. Press 'enter/return' when you are ready to start the practice.",video&audio/Example_AOMI_total.png,1.8,0.7,None,None,None,None,None,oppose,ghetto,6.5,7.5,video&audio/sentence3_TT_3X.mp4,video&audio/jargon_TT_3X.mp4,frugal,jargon,None,,,,,,,,,,,0,10,10,2,,,,,,,,,,,,,,,,,,,,,,,,,,,,,,,,,,,,,,,,,,,,,,,,,,,,,,,,None, oppose,"['o', 'p', 'p', 'o', 's', 'e', 'return']","[0.4572825999930501, 0.7850731000071391, 0.9211351000703871, 1.1051450000377372, 1.2490570000372827, 1.3772273000795394, 1.6892817000625655]",,,,,,,,,,,,,,,,,,,,,,,,,,,,,,,,,,,26,001,H,2023_Feb_16_1347,student_TT_local,2021.1.4,47.74527702749635,
,None,None,None,None,None,None,None,None,None,None,trench,ethnic,6.5,7.5,video&audio/sentence4_TT_3X.mp4,video&audio/goblet_TT_3X.mp4,botany,goblet,None,,,,,,,,,,,0,11,11,27,,,,,,,,,,,,,,,,,,,,,,,,,,,,,,,,,,,,,,,,,,,,,,,,,,,,,,,,None, trench,"['t', 'r', 'e', 'n', 'c', 'h', 'return']","[0.5157684000441805, 0.7798765000188723, 1.0037165000103414, 1.2038012000266463, 1.379851800040342, 1.5478473999537528, 2.1000915999757126]",,,,,,,,,,,,,,,,,,,,,,,,,,,,,,,,,,,26,001,H,2023_Feb_16_1347,student_TT_local,2021.1.4,47.74527702749635,
,None,None,None,None,None,None,None,None,None,None,tandem,origin,19.5,20.5,video&audio/Sentence4_touch_edited.mp4,video&audio/coerce_touch_edited.mp4,falter,coerce,None,,,,,,,,,,,0,12,12,15,,,,,,,,,,,,,,,,,,,,,,,,,,,,,,,,,,,,,,,,,,,,,,,,,,,,,,,,None, tandem,"['t', 'a', 'n', 'd', 'e', 'm', 'return']","[0.905904300045222, 1.177889100043103, 1.3379122000187635, 1.513911300105974, 1.866125800064765, 2.0259392000734806, 2.833794700098224]",,,,,,,,,,,,,,,,,,,,,,,,,,,,,,,,,,,26,001,H,2023_Feb_16_1347,student_TT_local,2021.1.4,47.74527702749635,
,None,None,None,None,None,None,None,None,None,None,shrewd,revoke,6.5,7.5,video&audio/sentence1_TT_3X.mp4,video&audio/mirage_TT_3X.mp4,malady,mirage,None,,,,,,,,,,,0,13,13,6,,,,,,,,,,,,,,,,,,,,,,,,,,,,,,,,,,,,,,,,,,,,,,,,,,,,,,,,['s'], shrewd,"['s', 'h', 'r', 'e', 'w', 'd', 'return']","[1.0914025000529364, 1.227570699993521, 1.403365800040774, 1.5552304000593722, 1.9155079000629485, 2.139239100040868, 2.6753444999922067]",[2.8861714999657124],,,,,,,,,,,,,,,,,,,,,,,,,,,,,,,,,,26,001,H,2023_Feb_16_1347,student_TT_local,2021.1.4,47.74527702749635,
,None,None,None,None,None,None,None,None,None,None,cobble,export,19.5,20.5,video&audio/Sentence2_touch_edited.mp4,video&audio/savant_touch_edited.mp4,cervix,savant,None,,,,,,,,,,,0,14,14,19,,,,,,,,,,,,,,,,,,,,,,,,,,,,,,,,,,,,,,,,,,,,,,,,,,,,,,,,['c'], cobble,"['c', 'o', 'b', 'b', 'l', 'r', 'backspace', 'e', 'return']","[0.6170993000268936, 0.8334350999211892, 1.0491314999526367, 1.7531297999667004, 1.9053923999890685, 2.1291999999666587, 2.7532355999574065, 2.9291565000312403, 3.129128500004299]",[2.725318699958734],,,,,,,,,,,,,,,,,,,,,,,,,,,,,,,,,,26,001,H,2023_Feb_16_1347,student_TT_local,2021.1.4,47.74527702749635,
,None,None,None,None,None,None,None,None,None,None,innate,tamper,6.5,7.5,video&audio/sentence1_TT_3X.mp4,video&audio/sonnet_TT_3X.mp4,confer,sonnet,None,,,,,,,,,,,0,15,15,12,,,,,,,,,,,,,,,,,,,,,,,,,,,,,,,,,,,,,,,,,,,,,,,,,,,,,,,,None, innate,"['i', 'n', 'n', 'a', 't', 'e', 'return']","[0.4412120000924915, 0.697221799986437, 0.8332608999917284, 0.9455483000492677, 1.1373575000325218, 1.2972936000442132, 1.6572536000749096]",,,,,,,,,,,,,,,,,,,,,,,,,,,,,,,,,,,26,001,H,2023_Feb_16_1347,student_TT_local,2021.1.4,47.74527702749635,
,None,None,None,None,None,None,None,None,None,None,meddle,divert,19.5,20.5,video&audio/Sentence2_touch_edited.mp4,video&audio/upkeep_touch_edited.mp4,kipper,upkeep,None,,,,,,,,,,,0,16,16,25,,,,,,,,,,,,,,,,,,,,,,,,,,,,,,,,,,,,,,,,,,,,,,,,,,,,,,,,None, meddle,"['m', 'e', 'd', 'd', 'l', 'e', 'return']","[0.4296487000538036, 0.5973922000266612, 0.8295051000313833, 1.0133321000030264, 1.157305800006725, 1.2697107000276446, 1.5573761000996456]",,,,,,,,,,,,,,,,,,,,,,,,,,,,,,,,,,,26,001,H,2023_Feb_16_1347,student_TT_local,2021.1.4,47.74527702749635,
,None,None,None,None,None,None,None,None,None,None,output,uphold,19.5,20.5,video&audio/Sentence1_touch_edited.mp4,video&audio/pursue_touch_edited.mp4,debtor,pursue,None,,,,,,,,,,,0,17,17,18,,,,,,,,,,,,,,,,,,,,,,,,,,,,,,,,,,,,,,,,,,,,,,,,,,,,,,,,None, output,"['o', 'u', 't', 'p', 'u', 't', 'return']","[0.44992719998117536, 0.7535957000218332, 0.9616144999163225, 1.0977145999204367, 1.409694999922067, 1.570157999987714, 1.8657161999726668]",,,,,,,,,,,,,,,,,,,,,,,,,,,,,,,,,,,26,001,H,2023_Feb_16_1347,student_TT_local,2021.1.4,47.74527702749635,
,None,None,None,None,None,None,None,None,None,None,campus,allure,6.5,7.5,video&audio/sentence6_TT_3X.mp4,video&audio/binder_TT_3X.mp4,forage,binder,None,,,,,,,,,,,0,18,18,29,,,,,,,,,,,,,,,,,,,,,,,,,,,,,,,,,,,,,,,,,,,,,,,,,,,,,,,,None, campus,"['c', 'a', 'm', 'p', 'u', 's', 'return']","[0.49380060005933046, 0.6941130000632256, 0.7977277000900358, 1.0217965000774711, 1.3336632000282407, 1.8057686000829563, 2.1497244000202045]",,,,,,,,,,,,,,,,,,,,,,,,,,,,,,,,,,,26,001,H,2023_Feb_16_1347,student_TT_local,2021.1.4,47.74527702749635,
,None,None,None,None,None,None,None,None,None,None,delude,galley,6.5,7.5,video&audio/sentence2_TT_3X.mp4,video&audio/strife_TT_3X.mp4,tariff,strife,None,,,,,,,,,,,0,19,19,7,,,,,,,,,,,,,,,,,,,,,,,,,,,,,,,,,,,,,,,,,,,,,,,,,,,,,,,,None, delude,"['d', 'e', 'l', 'u', 'd', 'e', 'return']","[0.869102600030601, 1.0851109999930486, 1.2131877000210807, 1.5250634000403807, 1.6610726999351755, 1.869100600015372, 2.1969862999394536]",,,,,,,,,,,,,,,,,,,,,,,,,,,,,,,,,,,26,001,H,2023_Feb_16_1347,student_TT_local,2021.1.4,47.74527702749635,
,None,None,None,None,None,None,None,None,None,None,jailer,nettle,19.5,20.5,video&audio/Sentence5_touch_edited.mp4,video&audio/convoy_touch_edited.mp4,plasma,convoy,None,,,,,,,,,,,0,20,20,16,,,,,,,,,,,,,,,,,,,,,,,,,,,,,,,,,,,,,,,,,,,,,,,,,,,,,,,,"['j', 'a', 'i']",jailer,"['l', 'j', 'a', 'i', 'l', 'e', 'r', 'backspace', 'backspace', 'backspace', 'backspace', 'backspace', 'backspace', 'backspace', 'backspace', 'j', 'a', 'i', 'l', 'e', 'r', 'return']","[0.1731343000428751, 1.1251278000418097, 1.213175000040792, 1.3250394000206143, 1.5251278000650927, 1.6533389000687748, 1.7414211001014337, 2.42125760007184, 3.55715600005351, 3.7090390000957996, 3.853092600009404, 3.9973496000748128, 4.125445800018497, 4.26922050002031, 4.397187700029463, 5.149206400034018, 5.293432300095446, 5.3814842000138015, 5.637195900082588, 5.853113200049847, 5.957124900072813, 6.517418300034478]","[2.6953856999753043, 2.84747089992743, 2.959426400018856]",,,,,,,,,,,,,,,,,,,,,,,,,,,,,,,,,,26,001,H,2023_Feb_16_1347,student_TT_local,2021.1.4,47.74527702749635,
,None,None,None,None,None,None,None,None,None,None,clergy,portal,19.5,20.5,video&audio/Sentence6_touch_edited.mp4,video&audio/murmur_touch_edited.mp4,ritual,murmur,None,,,,,,,,,,,0,21,21,17,,,,,,,,,,,,,,,,,,,,,,,,,,,,,,,,,,,,,,,,,,,,,,,,,,,,,,,,None, clergy,"['c', 'l', 'e', 'r', 'g', 'y', 'return']","[0.5373742999508977, 0.7935613000299782, 1.033731000032276, 1.1695657999953255, 1.8735966000240296, 2.025400000042282, 2.529532999964431]",,,,,,,,,,,,,,,,,,,,,,,,,,,,,,,,,,,26,001,H,2023_Feb_16_1347,student_TT_local,2021.1.4,47.74527702749635,
,None,None,None,None,None,None,None,None,None,None,hearth,herbal,19.5,20.5,video&audio/Sentence3_touch_edited.mp4,video&audio/deduct_touch_edited.mp4,hippie,deduct,None,,,,,,,,,,,0,22,22,14,,,,,,,,,,,,,,,,,,,,,,,,,,,,,,,,,,,,,,,,,,,,,,,,,,,,,,,,None, hearth,"['h', 'e', 'a', 'r', 't', 'h', 'return']","[0.5072527000447735, 0.6346739999717101, 0.8186463000020012, 0.9870815000031143, 1.218610699987039, 1.7227691999869421, 2.3548013999825343]",,,,,,,,,,,,,,,,,,,,,,,,,,,,,,,,,,,26,001,H,2023_Feb_16_1347,student_TT_local,2021.1.4,47.74527702749635,
,None,None,None,None,None,None,None,None,None,None,primal,entail,6.5,7.5,video&audio/sentence5_TT_3X.mp4,video&audio/novice_TT_3X.mp4,parcel,novice,None,,,,,,,,,,,0,23,23,4,,,,,,,,,,,,,,,,,,,,,,,,,,,,,,,,,,,,,,,,,,,,,,,,,,,,,,,,None, primal,"['p', 'r', 'i', 'm', 'a', 'l', 'return']","[0.4364615000085905, 0.6444718999555334, 0.8125466000055894, 0.9888365999795496, 1.1169861999806017, 1.2605178999947384, 1.7967161999549717]",,,,,,,,,,,,,,,,,,,,,,,,,,,,,,,,,,,26,001,H,2023_Feb_16_1347,student_TT_local,2021.1.4,47.74527702749635,
,None,None,None,None,None,None,None,None,None,None,fungal,mucous,19.5,20.5,video&audio/Sentence5_touch_edited.mp4,video&audio/musket_touch_edited.mp4,subtle,musket,None,,,,,,,,,,,0,24,24,22,,,,,,,,,,,,,,,,,,,,,,,,,,,,,,,,,,,,,,,,,,,,,,,,,,,,,,,,None, fungal,"['f', 'u', 'n', 'g', 'a', 'l', 'return']","[0.6049738000147045, 0.740799400024116, 0.95693330001086, 1.1408044999698177, 1.3167963000014424, 1.4452160999644548, 1.9328717000316828]",,,,,,,,,,,,,,,,,,,,,,,,,,,,,,,,,,,26,001,H,2023_Feb_16_1347,student_TT_local,2021.1.4,47.74527702749635,
,None,None,None,None,None,None,None,None,None,None,patent,defame,6.5,7.5,video&audio/sentence6_TT_3X.mp4,video&audio/quarry_TT_3X.mp4,covert,quarry,None,,,,,,,,,,,0,25,25,11,,,,,,,,,,,,,,,,,,,,,,,,,,,,,,,,,,,,,,,,,,,,,,,,,,,,,,,,None, patent,"['p', 'a', 't', 'e', 'n', 't', 'return']","[0.3383750000502914, 0.4823215000797063, 0.7943543000146747, 0.9385613000486046, 1.1142959999851882, 1.2744084000587463, 1.6184046000707895]",,,,,,,,,,,,,,,,,,,,,,,,,,,,,,,,,,,26,001,H,2023_Feb_16_1347,student_TT_local,2021.1.4,47.74527702749635,
,None,None,None,None,None,None,None,None,None,None,befall,ration,6.5,7.5,video&audio/sentence3_TT_3X.mp4,video&audio/parole_TT_3X.mp4,solemn,parole,None,,,,,,,,,,,0,26,26,8,,,,,,,,,,,,,,,,,,,,,,,,,,,,,,,,,,,,,,,,,,,,,,,,,,,,,,,,"['b', 'e', 'f']",befall,"['a', 'l', 'l', 'backspace', 'backspace', 'backspace', 'backspace', 'b', 'e', 'f', 'a', 'l', 'l', 'return']","[0.10452509997412562, 0.2885632999241352, 0.43235639994964004, 1.0404612999409437, 1.1922874000156298, 1.3206634999951348, 1.464348900015466, 2.3925632999744266, 2.5363875000039116, 2.7370028999866918, 2.952324099955149, 3.104324799962342, 3.2487390999449417, 3.5526353999739513]","[2.674559200066142, 2.8026243000058457, 2.9224663000786677]",,,,,,,,,,,,,,,,,,,,,,,,,,,,,,,,,,26,001,H,2023_Feb_16_1347,student_TT_local,2021.1.4,47.74527702749635,
,None,None,None,None,None,None,None,None,None,None,joiner,apathy,6.5,7.5,video&audio/sentence6_TT_3X.mp4,video&audio/revolt_TT_3X.mp4,virile,revolt,None,,,,,,,,,,,0,27,27,5,,,,,,,,,,,,,,,,,,,,,,,,,,,,,,,,,,,,,,,,,,,,,,,,,,,,,,,,None, joiner,"['j', 'o', 'i', 'n', 'e', 'r', 'return']","[0.4370176999364048, 0.6288979999953881, 0.8531549000181258, 1.0530783999711275, 1.212872999953106, 1.2850253999931738, 1.5570791999343783]",,,,,,,,,,,,,,,,,,,,,,,,,,,,,,,,,,,26,001,H,2023_Feb_16_1347,student_TT_local,2021.1.4,47.74527702749635,
,"This is Section 2.

In this section, your task will be the same as before - that is, to type the word you see on the screen AFTER the typing prompt. However, rather than just seeing the word before typing, you will also see a video of someone typing different words to what you will need to type at different speeds. 

Press 'enter/return' to go to the next page.","This is Section 4. 

In this section, your task will be the same as before - that is, to type the word you see on the screen after the typing prompt. You will see a video again, like in Section 2, only this time, the video will show someone the same word that you must type at different speeds. 

Press 'enter/return' to go to the next page.",video&audio/Example_AOMI_layout.png,1.6,0.6,afford,19.5,20.5,video&audio/amount_touch_edited.mp4,video&audio/afford_touch_edited.mp4,hinder,breach,6.5,7.5,video&audio/sentence1_TT_3X.mp4,video&audio/vanity_TT_3X.mp4,matrix,vanity,1 = AOMIgen,,,,,,,,,,,0,28,28,0,,,,,,,,,,,,,,,,,,,,,,,,,,,,,,,,,,,,,,,,,,,,,,,,,,,,,,,,None, hinder,"['h', 'i', 'n', 'd', 'e', 'r', 'return']","[0.5488747999770567, 0.7324298999737948, 0.9883425000589341, 1.1243512999499217, 1.356384600047022, 1.4683396000182256, 1.7966486000223085]",,,,,,,,,,,,,,,,,,,,,,,,,,,,,,,,,,,26,001,H,2023_Feb_16_1347,student_TT_local,2021.1.4,47.74527702749635,
,None,None,None,None,None,None,None,None,None,None,girdle,linear,19.5,20.5,video&audio/Sentence6_touch_edited.mp4,video&audio/impose_touch_edited.mp4,belfry,impose,None,,,,,,,,,,,0,29,29,23,,,,,,,,,,,,,,,,,,,,,,,,,,,,,,,,,,,,,,,,,,,,,,,,,,,,,,,,None, girdle,"['g', 'i', 'r', 'd', 'l', 'e', 'return']","[0.2964550999458879, 0.464419599971734, 0.6004355000331998, 0.9284054000163451, 1.1045019000303, 1.2083681999938563, 1.5685122000286356]",,,,,,,,,,,,,,,,,,,,,,,,,,,,,,,,,,,26,001,H,2023_Feb_16_1347,student_TT_local,2021.1.4,47.74527702749635,
,,,,,,,,,,,,,,,,,,,,typingRatingScale.png,"How would you rate your typing performance in the previous section?

Press a number on your keyboard according to the rating scale below to give your answer. Your first answer will be accepted.",,,,,,,,,,,,,0,0,0,0,,,,,,,,,,,,,,,,,,,,,,,,,,,,,,,,,,,,,,,,,,,,,,,,,,,,,,,,,['3'],[21.099168400047347],,,,,,,,,,,,,,,,,,,,,,,,,,,,,,,,26,001,H,2023_Feb_16_1347,student_TT_local,2021.1.4,47.74527702749635,
,,,,,,,,,,,,,,,,,,,,imageryCheckScale.png,"In the previous section did you imagine yourself typing?

Press a number on your keyboard according to the rating scale below to give your answer. Your first answer will be accepted.",,,,,,,,,,,,,0,1,1,1,,,,,,,,,,,,,,,,,,,,,,,,,,,,,,,,,,,,,,,,,,,,,,,,,,,,,,,,,['3'],[15.936232700012624],,,,,,,,,,,,,,,,,,,,,,,,,,,,,,,,26,001,H,2023_Feb_16_1347,student_TT_local,2021.1.4,47.74527702749635,
,None,None,None,None,None,None,None,None,None,None,fungal,mucous,19.5,20.5,video&audio/Sentence5_touch_edited.mp4,video&audio/musket_touch_edited.mp4,subtle,musket,None,,,,,,,,,,,,,,,,,,,,,,,,,,,0,0,0,22,,,,,,,,,,,,,,,,,,,,,,,,,,,,,,,,,,,,,,,,,,,,,,,None,None,"['b', 'u', 't', 't', 'e', 'r', 'return']","[1.3017949999775738, 1.5170920999953523, 1.9248961999546736, 2.0534364000195637, 2.148929800023325, 2.3972598999971524, 2.588938200031407]",None, subtle,"['s', 'u', 'b', 't', 'l', 'e', 'return']","[0.9467087000375614, 1.122715900070034, 1.346698599983938, 1.522901299991645, 1.6746999999741092, 1.842730600037612, 2.1547368000028655]",,,,,,,,,,,,,,,,,,,,,,,,26,001,H,2023_Feb_16_1347,student_TT_local,2021.1.4,47.74527702749635,
,None,None,None,None,None,None,None,None,None,None,delude,galley,6.5,7.5,video&audio/sentence2_TT_3X.mp4,video&audio/strife_TT_3X.mp4,tariff,strife,None,,,,,,,,,,,,,,,,,,,,,,,,,,,0,1,1,7,,,,,,,,,,,,,,,,,,,,,,,,,,,,,,,,,,,,,,,,,,,,,,,,None,,,None, tariff,"['t', 'a', 'r', 'i', 'f', 'f', 'return']","[1.1257277999538928, 1.2538766999496147, 1.3980321999406442, 1.829786799964495, 2.1338160999584943, 2.334070899989456, 2.782029199996032]",,,,,,,,,,,,,,,,,,,,,,,,26,001,H,2023_Feb_16_1347,student_TT_local,2021.1.4,47.74527702749635,
,None,None,None,None,None,None,None,None,None,None,girdle,linear,19.5,20.5,video&audio/Sentence6_touch_edited.mp4,video&audio/impose_touch_edited.mp4,belfry,impose,None,,,,,,,,,,,,,,,,,,,,,,,,,,,0,2,2,23,,,,,,,,,,,,,,,,,,,,,,,,,,,,,,,,,,,,,,,,,,,,,,,,None,,,None, belfry,"['b', 'e', 'f', 'r', 'y', 'return']","[1.1194346999982372, 1.2954016999574378, 1.6314815999940038, 1.8714163999538869, 2.055484400014393, 2.543483999907039]",,,,,,,,,,,,,,,,,,,,,,,,26,001,H,2023_Feb_16_1347,student_TT_local,2021.1.4,47.74527702749635,
,None,None,None,None,None,None,None,None,None,None,parish,gullet,19.5,20.5,video&audio/Sentence5_touch_edited.mp4,video&audio/manure_touch_edited.mp4,picket,manure,None,,,,,,,,,,,,,,,,,,,,,,,,,,,0,3,3,28,,,,,,,,,,,,,,,,,,,,,,,,,,,,,,,,,,,,,,,,,,,,,,,,None,,,None, picket,"['p', 'i', 'c', 'k', 'e', 't', 'return']","[0.7423109000083059, 1.0622555000009015, 1.2385910999728367, 1.3902745000086725, 1.5504095000214875, 1.7751383999129757, 2.038199899950996]",,,,,,,,,,,,,,,,,,,,,,,,26,001,H,2023_Feb_16_1347,student_TT_local,2021.1.4,47.74527702749635,
,None,None,None,None,None,None,None,None,None,None,output,uphold,19.5,20.5,video&audio/Sentence1_touch_edited.mp4,video&audio/pursue_touch_edited.mp4,debtor,pursue,None,,,,,,,,,,,,,,,,,,,,,,,,,,,0,4,4,18,,,,,,,,,,,,,,,,,,,,,,,,,,,,,,,,,,,,,,,,,,,,,,,,None,,,None, debtor,"['d', 'e', 'b', 't', 'o', 'r', 'return']","[1.275631899945438, 1.4195577999344096, 1.6195948999375105, 1.7876784999389201, 1.9316256999736652, 2.107535499962978, 2.5400517999660224]",,,,,,,,,,,,,,,,,,,,,,,,26,001,H,2023_Feb_16_1347,student_TT_local,2021.1.4,47.74527702749635,
,None,None,None,None,None,None,None,None,None,None,cobble,export,19.5,20.5,video&audio/Sentence2_touch_edited.mp4,video&audio/savant_touch_edited.mp4,cervix,savant,None,,,,,,,,,,,,,,,,,,,,,,,,,,,0,5,5,19,,,,,,,,,,,,,,,,,,,,,,,,,,,,,,,,,,,,,,,,,,,,,,,,None,,,None, cervix,"['c', 'e', 'r', 'v', 'i', 'x', 'return']","[1.9472140999278054, 2.1232701999833807, 2.211535800015554, 2.9473516000434756, 3.171254099928774, 3.5636782000074163, 3.7952689999947324]",,,,,,,,,,,,,,,,,,,,,,,,26,001,H,2023_Feb_16_1347,student_TT_local,2021.1.4,47.74527702749635,
,None,None,None,None,None,None,None,None,None,None,tandem,origin,19.5,20.5,video&audio/Sentence4_touch_edited.mp4,video&audio/coerce_touch_edited.mp4,falter,coerce,None,,,,,,,,,,,,,,,,,,,,,,,,,,,0,6,6,15,,,,,,,,,,,,,,,,,,,,,,,,,,,,,,,,,,,,,,,,,,,,,,,,None,,,None, falter,"['f', 'a', 'l', 't', 'e', 'r', 'return']","[0.7596438999753445, 0.9675842999713495, 1.2072650999762118, 1.4232677000109106, 1.583430300001055, 1.6871702999342233, 2.007531499955803]",,,,,,,,,,,,,,,,,,,,,,,,26,001,H,2023_Feb_16_1347,student_TT_local,2021.1.4,47.74527702749635,
,None,None,None,None,None,None,None,None,None,None,caviar,shrill,19.5,20.5,video&audio/Sentence3_touch_edited.mp4,video&audio/brazen_touch_edited.mp4,piston,brazen,None,,,,,,,,,,,,,,,,,,,,,,,,,,,0,7,7,20,,,,,,,,,,,,,,,,,,,,,,,,,,,,,,,,,,,,,,,,,,,,,,,,None,,,None, piston,"['p', 'i', 's', 't', 'o', 'n', 'return']","[0.9398501000832766, 1.2036960000405088, 1.4040662000188604, 1.6357497000135481, 1.763669200008735, 1.971800500061363, 2.675758199999109]",,,,,,,,,,,,,,,,,,,,,,,,26,001,H,2023_Feb_16_1347,student_TT_local,2021.1.4,47.74527702749635,
,None,None,None,None,None,None,None,None,None,None,feudal,matron,19.5,20.5,video&audio/Sentence3_touch_edited.mp4,video&audio/legion_touch_edited.mp4,subdue,legion,None,,,,,,,,,,,,,,,,,,,,,,,,,,,0,8,8,26,,,,,,,,,,,,,,,,,,,,,,,,,,,,,,,,,,,,,,,,,,,,,,,,None,,,None, subdue,"['s', 'u', 'b', 'd', 'u', 'e', 'return']","[1.104508199961856, 1.2565931000281125, 1.7603707999223843, 2.0964395999908447, 2.3125924000050873, 2.4568417000118643, 2.8726760999998078]",,,,,,,,,,,,,,,,,,,,,,,,26,001,H,2023_Feb_16_1347,student_TT_local,2021.1.4,47.74527702749635,
,None,None,None,None,None,None,None,None,None,None,campus,allure,6.5,7.5,video&audio/sentence6_TT_3X.mp4,video&audio/binder_TT_3X.mp4,forage,binder,None,,,,,,,,,,,,,,,,,,,,,,,,,,,0,9,9,29,,,,,,,,,,,,,,,,,,,,,,,,,,,,,,,,,,,,,,,,,,,,,,,,None,,,None, forage,"['f', 'o', 'r', 'a', 'g', 'e', 'return']","[1.1780336999800056, 1.3462107999948785, 1.4816327999578789, 1.6655331999063492, 1.8016272999811918, 1.9616207999642938, 2.5702690999023616]",,,,,,,,,,,,,,,,,,,,,,,,26,001,H,2023_Feb_16_1347,student_TT_local,2021.1.4,47.74527702749635,
,None,None,None,None,None,None,None,None,None,None,septic,ordain,19.5,20.5,video&audio/Sentence2_touch_edited.mp4,video&audio/potent_touch_edited.mp4,neural,potent,None,,,,,,,,,,,,,,,,,,,,,,,,,,,0,10,10,13,,,,,,,,,,,,,,,,,,,,,,,,,,,,,,,,,,,,,,,,,,,,,,,,None,,,None, neural,"['n', 'e', 'u', 'r', 'a', 'semicolon', 'backspace', 'l', 'return']","[0.8410844999598339, 1.0328620999353006, 1.176575499936007, 1.3206325999926776, 1.6248047000262886, 1.7925062000285834, 2.712640499928966, 2.984598599956371, 3.2088388999691233]",,,,,,,,,,,,,,,,,,,,,,,,26,001,H,2023_Feb_16_1347,student_TT_local,2021.1.4,47.74527702749635,
,None,None,None,None,None,None,None,None,None,None,jailer,nettle,19.5,20.5,video&audio/Sentence5_touch_edited.mp4,video&audio/convoy_touch_edited.mp4,plasma,convoy,None,,,,,,,,,,,,,,,,,,,,,,,,,,,0,11,11,16,,,,,,,,,,,,,,,,,,,,,,,,,,,,,,,,,,,,,,,,,,,,,,,,None,,,None, plasma,"['p', 'l', 'a', 's', 'm', 'a', 'return']","[1.0204100999981165, 1.20417839998845, 1.436143699917011, 1.5005603999597952, 1.7403006999520585, 1.9242806999245659, 2.236795899923891]",,,,,,,,,,,,,,,,,,,,,,,,26,001,H,2023_Feb_16_1347,student_TT_local,2021.1.4,47.74527702749635,
,None,None,None,None,None,None,None,None,None,None,shrewd,revoke,6.5,7.5,video&audio/sentence1_TT_3X.mp4,video&audio/mirage_TT_3X.mp4,malady,mirage,None,,,,,,,,,,,,,,,,,,,,,,,,,,,0,12,12,6,,,,,,,,,,,,,,,,,,,,,,,,,,,,,,,,,,,,,,,,,,,,,,,,None,,,None, malday,"['m', 'a', 'l', 'd', 'a', 'y', 'return']","[1.1033127999398857, 1.2630342999473214, 1.3909575999714434, 1.5428071999922395, 1.647296099923551, 1.8629623999586329, 2.319427700014785]",,,,,,,,,,,,,,,,,,,,,,,,26,001,H,2023_Feb_16_1347,student_TT_local,2021.1.4,47.74527702749635,
,None,None,None,None,None,None,None,None,None,None,trench,ethnic,6.5,7.5,video&audio/sentence4_TT_3X.mp4,video&audio/goblet_TT_3X.mp4,botany,goblet,None,,,,,,,,,,,,,,,,,,,,,,,,,,,0,13,13,27,,,,,,,,,,,,,,,,,,,,,,,,,,,,,,,,,,,,,,,,,,,,,,,,None,,,None, botany,"['b', 'o', 't', 'a', 'n', 'y', 'return']","[0.9279641999164596, 1.1201974999858066, 1.2960124999517575, 1.4881850999081507, 1.6559443000005558, 1.8240043999394402, 2.432041799998842]",,,,,,,,,,,,,,,,,,,,,,,,26,001,H,2023_Feb_16_1347,student_TT_local,2021.1.4,47.74527702749635,
,None,None,None,None,None,None,None,None,None,None,zephyr,fusion,6.5,7.5,video&audio/sentence5_TT_3X.mp4,video&audio/critic_TT_3X.mp4,obsess,critic,None,,,,,,,,,,,,,,,,,,,,,,,,,,,0,14,14,10,,,,,,,,,,,,,,,,,,,,,,,,,,,,,,,,,,,,,,,,,,,,,,,,None,,,None, obsess,"['o', 'b', 's', 'e', 's', 's', 'return']","[0.6517973999725655, 0.8996784999035299, 1.12407409993466, 1.315755599993281, 1.5237435000017285, 1.7077044999459758, 1.9080643999623135]",,,,,,,,,,,,,,,,,,,,,,,,26,001,H,2023_Feb_16_1347,student_TT_local,2021.1.4,47.74527702749635,
,"While you watch the video, imagine yourself typing the word on the screen, like how you did in the imagery practice. While you watch the video and imagine this, rest your hands on your keyboard but DO NOT type until AFTER you see the typing prompt.

Press 'enter/return' to go to the next page.","While watching the video, imagine yourself typing the word on the screen, like how you did in the imagery practice. While you watch the video and imagine this, rest your hands on your keyboard but DO NOT type until AFTER you see the typing prompt.

Press 'enter/return' to go to the next page.",video&audio/Example_AOMI_imagine.png,1.6,1,butter,6.5,7.5,video&audio/amount_TT_3X.mp4,video&audio/butter_TT_3X.mp4,metric,eatery,6.5,7.5,video&audio/sentence2_TT_3X.mp4,video&audio/plight_TT_3X.mp4,ascend,plight,2 = AOMIspec,,,,,,,,,,,,,,,,,,,,,,,,,,,0,15,15,1,,,,,,,,,,,,,,,,,,,,,,,,,,,,,,,,,,,,,,,,,,,,,,,,None,,,None, ascend,"['a', 's', 'c', 'e', 'n', 'd', 'return']","[1.1334319000598043, 1.4453723001061007, 1.6769564000423998, 1.9009624000173062, 2.053038000012748, 2.148940300103277, 2.557068100082688]",,,,,,,,,,,,,,,,,,,,,,,,26,001,H,2023_Feb_16_1347,student_TT_local,2021.1.4,47.74527702749635,
,None,None,None,None,None,None,None,None,None,None,meddle,divert,19.5,20.5,video&audio/Sentence2_touch_edited.mp4,video&audio/upkeep_touch_edited.mp4,kipper,upkeep,None,,,,,,,,,,,,,,,,,,,,,,,,,,,0,16,16,25,,,,,,,,,,,,,,,,,,,,,,,,,,,,,,,,,,,,,,,,,,,,,,,,None,,,None, kipper,"['k', 'i', 'p', 'p', 'r', 'return']","[0.875110000022687, 1.1391381999710575, 1.3713404999580234, 1.5229067999171093, 1.7231579999206588, 1.963091399986297]",,,,,,,,,,,,,,,,,,,,,,,,26,001,H,2023_Feb_16_1347,student_TT_local,2021.1.4,47.74527702749635,
,None,None,None,None,None,None,None,None,None,None,patent,defame,6.5,7.5,video&audio/sentence6_TT_3X.mp4,video&audio/quarry_TT_3X.mp4,covert,quarry,None,,,,,,,,,,,,,,,,,,,,,,,,,,,0,17,17,11,,,,,,,,,,,,,,,,,,,,,,,,,,,,,,,,,,,,,,,,,,,,,,,,None,,,None, convert,"['c', 'o', 'n', 'v', 'e', 'r', 't', 'return']","[1.0137114999815822, 1.1580618000589311, 1.3898089999565855, 1.621747300028801, 1.7337683000368997, 1.8458686000667512, 2.0057615999830887, 2.5181892999680713]",,,,,,,,,,,,,,,,,,,,,,,,26,001,H,2023_Feb_16_1347,student_TT_local,2021.1.4,47.74527702749635,
,None,None,None,None,None,None,None,None,None,None,primal,entail,6.5,7.5,video&audio/sentence5_TT_3X.mp4,video&audio/novice_TT_3X.mp4,parcel,novice,None,,,,,,,,,,,,,,,,,,,,,,,,,,,0,18,18,4,,,,,,,,,,,,,,,,,,,,,,,,,,,,,,,,,,,,,,,,,,,,,,,,None,,,None, parcel,"['p', 'a', 'r', 'c', 'e', 'l', 'delete', 'return']","[0.6100227000424638, 0.7379844000097364, 0.9700000999728218, 1.2821888000471517, 1.5460057000163943, 1.697920300066471, 2.146220299997367, 2.545915300026536]",,,,,,,,,,,,,,,,,,,,,,,,26,001,H,2023_Feb_16_1347,student_TT_local,2021.1.4,47.74527702749635,
,None,None,None,None,None,None,None,None,None,None,hearth,herbal,19.5,20.5,video&audio/Sentence3_touch_edited.mp4,video&audio/deduct_touch_edited.mp4,hippie,deduct,None,,,,,,,,,,,,,,,,,,,,,,,,,,,0,19,19,14,,,,,,,,,,,,,,,,,,,,,,,,,,,,,,,,,,,,,,,,,,,,,,,,None,,,None, hippie,"['h', 'p', 'p', 'i', 'e', 'return']","[1.0646468999329954, 1.5846427000360563, 1.752451999927871, 2.008499599993229, 2.176457899971865, 2.4003783999942243]",,,,,,,,,,,,,,,,,,,,,,,,26,001,H,2023_Feb_16_1347,student_TT_local,2021.1.4,47.74527702749635,
,"This is Section 2.

In this section, your task will be the same as before - that is, to type the word you see on the screen AFTER the typing prompt. However, rather than just seeing the word before typing, you will also see a video of someone typing different words to what you will need to type at different speeds. 

Press 'enter/return' to go to the next page.","This is Section 4. 

In this section, your task will be the same as before - that is, to type the word you see on the screen after the typing prompt. You will see a video again, like in Section 2, only this time, the video will show someone the same word that you must type at different speeds. 

Press 'enter/return' to go to the next page.",video&audio/Example_AOMI_layout.png,1.6,0.6,afford,19.5,20.5,video&audio/amount_touch_edited.mp4,video&audio/afford_touch_edited.mp4,hinder,breach,6.5,7.5,video&audio/sentence1_TT_3X.mp4,video&audio/vanity_TT_3X.mp4,matrix,vanity,1 = AOMIgen,,,,,,,,,,,,,,,,,,,,,,,,,,,0,20,20,0,,,,,,,,,,,,,,,,,,,,,,,,,,,,,,,,,,,,,,,,,,,,,,,,None,,,None, matrix,"['m', 'capslock', 'capslock', 'a', 't', 'r', 'i', 'x', 'return']","[0.8721711999969557, 1.0485421000048518, 2.1762683000415564, 2.4719401000766084, 2.823918200097978, 2.9678646000102162, 3.1278671000618488, 3.743883200106211, 4.344194800010882]",,,,,,,,,,,,,,,,,,,,,,,,26,001,H,2023_Feb_16_1347,student_TT_local,2021.1.4,47.74527702749635,
,None,None,None,None,None,None,None,None,None,None,innate,tamper,6.5,7.5,video&audio/sentence1_TT_3X.mp4,video&audio/sonnet_TT_3X.mp4,confer,sonnet,None,,,,,,,,,,,,,,,,,,,,,,,,,,,0,21,21,12,,,,,,,,,,,,,,,,,,,,,,,,,,,,,,,,,,,,,,,,,,,,,,,,None,,,None, confer,"['c', 'n', 'f', 'e', 'r', 'return']","[0.9708964999299496, 1.274665700038895, 1.4107540999539196, 1.554847199935466, 1.7071611999999732, 2.091246400028467]",,,,,,,,,,,,,,,,,,,,,,,,26,001,H,2023_Feb_16_1347,student_TT_local,2021.1.4,47.74527702749635,
,None,None,None,None,None,None,None,None,None,None,induce,mussel,19.5,20.5,video&audio/Sentence4_touch_edited.mp4,video&audio/satire_touch_edited.mp4,cortex,satire,None,,,,,,,,,,,,,,,,,,,,,,,,,,,0,22,22,21,,,,,,,,,,,,,,,,,,,,,,,,,,,,,,,,,,,,,,,,,,,,,,,,None,,,None, cortex,"['c', 'o', 'r', 't', 'e', 'x', 't', 'backspace', 'return', 'pound']","[0.8672904999693856, 1.0592141998931766, 1.2915983999846503, 1.6993561999406666, 1.9555553999962285, 2.171231899992563, 2.419254199950956, 2.915224299998954, 3.1711365999653935, 3.1794184999307618]",,,,,,,,,,,,,,,,,,,,,,,,26,001,H,2023_Feb_16_1347,student_TT_local,2021.1.4,47.74527702749635,
,None,None,None,None,None,None,None,None,None,None,hamlet,shroud,6.5,7.5,video&audio/sentence4_TT_3X.mp4,video&audio/sherry_TT_3X.mp4,jackal,sherry,None,,,,,,,,,,,,,,,,,,,,,,,,,,,0,23,23,9,,,,,,,,,,,,,,,,,,,,,,,,,,,,,,,,,,,,,,,,,,,,,,,,None,,,None, jackal,"['j', 'a', 'c', 'k', 'a', 'l', 'return']","[1.2762059000087902, 1.4360678000375628, 1.6522280999924988, 1.8442914999322966, 2.420039899996482, 2.556209099944681, 2.8681647999910638]",,,,,,,,,,,,,,,,,,,,,,,,26,001,H,2023_Feb_16_1347,student_TT_local,2021.1.4,47.74527702749635,
,None,None,None,None,None,None,None,None,None,None,joiner,apathy,6.5,7.5,video&audio/sentence6_TT_3X.mp4,video&audio/revolt_TT_3X.mp4,virile,revolt,None,,,,,,,,,,,,,,,,,,,,,,,,,,,0,24,24,5,,,,,,,,,,,,,,,,,,,,,,,,,,,,,,,,,,,,,,,,,,,,,,,,None,,,None, virile,"['v', 'i', 'r', 'i', 'l', 'e', 'return']","[0.7899137999629602, 0.9978623000206426, 1.205917999963276, 1.557621999992989, 1.7736533000133932, 1.9258373000193387, 2.36551569995936]",,,,,,,,,,,,,,,,,,,,,,,,26,001,H,2023_Feb_16_1347,student_TT_local,2021.1.4,47.74527702749635,
,None,None,None,None,None,None,None,None,None,None,oblige,mystic,6.5,7.5,video&audio/sentence4_TT_3X.mp4,video&audio/infirm_TT_3X.mp4,pulpit,infirm,None,,,,,,,,,,,,,,,,,,,,,,,,,,,0,25,25,3,,,,,,,,,,,,,,,,,,,,,,,,,,,,,,,,,,,,,,,,,,,,,,,,None,,,None, pulpit,"['p', 'u', 'k', 'backspace', 'l', 'p', 'i', 't', 'return']","[0.971864299965091, 1.2516393000259995, 1.5475865999469534, 2.1396216000430286, 2.443554600002244, 2.691550899995491, 2.947568199946545, 3.1559015000239015, 3.5235695999581367]",,,,,,,,,,,,,,,,,,,,,,,,26,001,H,2023_Feb_16_1347,student_TT_local,2021.1.4,47.74527702749635,
,None,None,None,None,None,None,None,None,None,None,mangle,warble,19.5,20.5,video&audio/Sentence1_touch_edited.mp4,video&audio/fodder_touch_edited.mp4,devise,fodder,None,,,,,,,,,,,,,,,,,,,,,,,,,,,0,26,26,24,,,,,,,,,,,,,,,,,,,,,,,,,,,,,,,,,,,,,,,,,,,,,,,,None,,,None, devise,"['e', 'v', 'i', 's', 'e', 'return']","[1.2952956999652088, 1.8872648000251502, 2.1034801000496373, 2.3434026000322774, 2.4792480999603868, 2.7672703999560326]",,,,,,,,,,,,,,,,,,,,,,,,26,001,H,2023_Feb_16_1347,student_TT_local,2021.1.4,47.74527702749635,
,None,None,None,None,None,None,None,None,None,None,clergy,portal,19.5,20.5,video&audio/Sentence6_touch_edited.mp4,video&audio/murmur_touch_edited.mp4,ritual,murmur,None,,,,,,,,,,,,,,,,,,,,,,,,,,,0,27,27,17,,,,,,,,,,,,,,,,,,,,,,,,,,,,,,,,,,,,,,,,,,,,,,,,None,,,None, ritual,"['r', 'i', 't', 'u', 'a', 'l', 'return']","[1.029141700011678, 1.2208569999784231, 1.3648236999288201, 1.5088731999276206, 1.6695440999465063, 1.844903599936515, 2.2289901999756694]",,,,,,,,,,,,,,,,,,,,,,,,26,001,H,2023_Feb_16_1347,student_TT_local,2021.1.4,47.74527702749635,
,"Remember to type as QUICKLY and ACCURATELY as possible after the 'get ready' prompt.

Ask the experimenter any questions now. Please put on the headphones.

You will get one practice trial. Press 'enter/return' when you are ready to start the practice.","Remember to type as QUICKLY and ACCURATELY as you can after the 'get ready' prompt.

Ask the experimenter any questions now. Please put on the headphones.

You will get one practice trial. Press 'enter/return' when you are ready to start the practice.",video&audio/Example_AOMI_total.png,1.8,0.7,None,None,None,None,None,oppose,ghetto,6.5,7.5,video&audio/sentence3_TT_3X.mp4,video&audio/jargon_TT_3X.mp4,frugal,jargon,None,,,,,,,,,,,,,,,,,,,,,,,,,,,0,28,28,2,,,,,,,,,,,,,,,,,,,,,,,,,,,,,,,,,,,,,,,,,,,,,,,,None,,,None, furgal,"['f', 'u', 'r', 'g', 'a', 'l', 'return']","[1.8790380000136793, 2.1509590999921784, 2.358993500005454, 2.6550223000813276, 2.8313053000019863, 2.982987600029446, 3.5270773000083864]",,,,,,,,,,,,,,,,,,,,,,,,26,001,H,2023_Feb_16_1347,student_TT_local,2021.1.4,47.74527702749635,
,None,None,None,None,None,None,None,None,None,None,befall,ration,6.5,7.5,video&audio/sentence3_TT_3X.mp4,video&audio/parole_TT_3X.mp4,solemn,parole,None,,,,,,,,,,,,,,,,,,,,,,,,,,,0,29,29,8,,,,,,,,,,,,,,,,,,,,,,,,,,,,,,,,,,,,,,,,,,,,,,,,None,,,None, soleman,"['s', 'o', 'l', 'e', 'm', 'a', 'n', 'return']","[1.0650645999703556, 1.2332909000106156, 1.4014588000718504, 1.481324000051245, 1.6571346999844536, 1.8012038000160828, 1.961081700050272, 2.2579138000728562]",,,,,,,,,,,,,,,,,,,,,,,,26,001,H,2023_Feb_16_1347,student_TT_local,2021.1.4,47.74527702749635,
,,,,,,,,,,,,,,,,,,,,typingRatingScale.png,"How would you rate your typing performance in the previous section?

Press a number on your keyboard according to the rating scale below to give your answer. Your first answer will be accepted.",,,,,,,,,,,,,,,,,,,,,,,,,,,,,0,0,0,0,,,,,,,,,,,,,,,,,,,,,,,,,,,,,,,,,,,,,,,,,,,,,,,,,,,['2'],[8.087703100056387],,,,,,,,,,,,,,,,,,,,,,26,001,H,2023_Feb_16_1347,student_TT_local,2021.1.4,47.74527702749635,
,,,,,,,,,,,,,,,,,,,,visualImageryScale.png,"While imagining yourself typing, how clear was your visual image?

Press a number on your keyboard according to the rating scale below to give your answer. Your first answer will be accepted.",,,,,,,,,,,,,,,,,,,,,,,,,,,,,0,1,1,1,,,,,,,,,,,,,,,,,,,,,,,,,,,,,,,,,,,,,,,,,,,,,,,,,,,['4'],[18.454070300096646],,,,,,,,,,,,,,,,,,,,,,26,001,H,2023_Feb_16_1347,student_TT_local,2021.1.4,47.74527702749635,
,,,,,,,,,,,,,,,,,,,,kinestheticImageryScale.png,"While imagining yourself typing, how intense were the sensations associated with the imagined movement?

Press a number on your keyboard according to the rating scale below to give your answer. Your first answer will be accepted.",,,,,,,,,,,,,,,,,,,,,,,,,,,,,0,2,2,2,,,,,,,,,,,,,,,,,,,,,,,,,,,,,,,,,,,,,,,,,,,,,,,,,,,['3'],[7.4727511999662966],,,,,,,,,,,,,,,,,,,,,,26,001,H,2023_Feb_16_1347,student_TT_local,2021.1.4,47.74527702749635,
,"This is Section 2.

In this section, your task will be the same as before - that is, to type the word you see on the screen AFTER the typing prompt. However, rather than just seeing the word before typing, you will also see a video of someone typing different words to what you will need to type at different speeds. 

Press 'enter/return' to go to the next page.","This is Section 4. 

In this section, your task will be the same as before - that is, to type the word you see on the screen after the typing prompt. You will see a video again, like in Section 2, only this time, the video will show someone the same word that you must type at different speeds. 

Press 'enter/return' to go to the next page.",video&audio/Example_AOMI_layout.png,1.6,0.6,afford,19.5,20.5,video&audio/amount_touch_edited.mp4,video&audio/afford_touch_edited.mp4,hinder,breach,6.5,7.5,video&audio/sentence1_TT_3X.mp4,video&audio/vanity_TT_3X.mp4,matrix,vanity,1 = AOMIgen,,,,,,,,,,,,,,,,,,,,,,,,,,,,,,,,,,,,,,,,,,,0,0,0,0,,,,,,,,,,,,,,,,,,,,,,,,,,,,,,,,,,,,,,,,,3131.0111579999793,3137.529321899987,None, butter,"['b', 'u', 't', 't', 'r', 'return']","[0.837551899952814, 1.0455186000326648, 1.293799199978821, 1.4296963999513537, 1.6295654999557883, 1.8696750999661162]",3176.152390299947,3182.669867599965,None, breach,"['b', 'r', 'e', 'a', 'c', 'h', 'return']","[0.9754067999310791, 1.126912200008519, 1.2710844000102952, 1.5990248000016436, 1.7509311999892816, 1.9190792000154033, 2.2873049000045285]",,,,,,,,,,26,001,H,2023_Feb_16_1347,student_TT_local,2021.1.4,47.74527702749635,
,None,None,None,None,None,None,None,None,None,None,meddle,divert,19.5,20.5,video&audio/Sentence2_touch_edited.mp4,video&audio/upkeep_touch_edited.mp4,kipper,upkeep,None,,,,,,,,,,,,,,,,,,,,,,,,,,,,,,,,,,,,,,,,,,,0,1,1,25,,,,,,,,,,,,,,,,,,,,,,,,,,,,,,,,,,,,,,,,,,,,,,,3185.985406599939,3205.500514399959,None, divert,"['d', 'i', 'v', 'e', 'r', 't', 'return']","[1.2230476000113413, 1.3508314000209793, 1.599281799979508, 1.7187292999587953, 1.8070761000271887, 2.015118999988772, 2.478574499953538]",,,,,,,,,,26,001,H,2023_Feb_16_1347,student_TT_local,2021.1.4,47.74527702749635,
,None,None,None,None,None,None,None,None,None,None,hamlet,shroud,6.5,7.5,video&audio/sentence4_TT_3X.mp4,video&audio/sherry_TT_3X.mp4,jackal,sherry,None,,,,,,,,,,,,,,,,,,,,,,,,,,,,,,,,,,,,,,,,,,,0,2,2,9,,,,,,,,,,,,,,,,,,,,,,,,,,,,,,,,,,,,,,,,,,,,,,,3209.024366299971,3215.541027099942,None, shroud,"['s', 'h', 'r', 'o', 'u', 'd', 'return']","[1.0331228999421, 1.1930879999417812, 1.4016084999311715, 1.5130460999207571, 1.76891819993034, 1.9291437999345362, 2.5131435999646783]",,,,,,,,,,26,001,H,2023_Feb_16_1347,student_TT_local,2021.1.4,47.74527702749635,
,None,None,None,None,None,None,None,None,None,None,mangle,warble,19.5,20.5,video&audio/Sentence1_touch_edited.mp4,video&audio/fodder_touch_edited.mp4,devise,fodder,None,,,,,,,,,,,,,,,,,,,,,,,,,,,,,,,,,,,,,,,,,,,0,3,3,24,,,,,,,,,,,,,,,,,,,,,,,,,,,,,,,,,,,,,,,,,,,,,,,3219.0860085999593,3238.6010800999356,None, warble,"['w', 'a', 'r', 'b', 'l', 'e', 'return']","[0.9398069999879226, 1.1237829000456259, 1.228002900024876, 1.4197568000527099, 1.6276884999824688, 1.835659599979408, 2.1398889999836683]",,,,,,,,,,26,001,H,2023_Feb_16_1347,student_TT_local,2021.1.4,47.74527702749635,
,None,None,None,None,None,None,None,None,None,None,zephyr,fusion,6.5,7.5,video&audio/sentence5_TT_3X.mp4,video&audio/critic_TT_3X.mp4,obsess,critic,None,,,,,,,,,,,,,,,,,,,,,,,,,,,,,,,,,,,,,,,,,,,0,4,4,10,,,,,,,,,,,,,,,,,,,,,,,,,,,,,,,,,,,,,,,,,,,,,,,3241.7707406999543,3248.288016199949,None, fusion,"['f', 'u', 's', 'i', 'o', 'n', 'return']","[1.1509324999060482, 1.3109092999948189, 1.4229800999164581, 1.5509541999781504, 1.7831652999157086, 2.7271844999631867, 3.1509279999881983]",,,,,,,,,,26,001,H,2023_Feb_16_1347,student_TT_local,2021.1.4,47.74527702749635,
,None,None,None,None,None,None,None,None,None,None,caviar,shrill,19.5,20.5,video&audio/Sentence3_touch_edited.mp4,video&audio/brazen_touch_edited.mp4,piston,brazen,None,,,,,,,,,,,,,,,,,,,,,,,,,,,,,,,,,,,,,,,,,,,0,5,5,20,,,,,,,,,,,,,,,,,,,,,,,,,,,,,,,,,,,,,,,,,,,,,,,3252.4790631999495,3271.9930504999356,None, shrill,"['s', 'h', 'r', 'i', 'l', 'l', 'return']","[1.0213116001104936, 1.1091656000353396, 1.3171137000899762, 1.4050558001035824, 1.6771415000548586, 1.8213292000582442, 2.1252221000613645]",,,,,,,,,,26,001,H,2023_Feb_16_1347,student_TT_local,2021.1.4,47.74527702749635,
,None,None,None,None,None,None,None,None,None,None,parish,gullet,19.5,20.5,video&audio/Sentence5_touch_edited.mp4,video&audio/manure_touch_edited.mp4,picket,manure,None,,,,,,,,,,,,,,,,,,,,,,,,,,,,,,,,,,,,,,,,,,,0,6,6,28,,,,,,,,,,,,,,,,,,,,,,,,,,,,,,,,,,,,,,,,,,,,,,,3275.1638931999914,3294.6780058000004,None, gullet,"['g', 'u', 'l', 'l', 'e', 't', 'return']","[1.2724088999675587, 1.448197399964556, 1.7121447999961674, 1.8561951000010595, 1.9449153000023216, 2.0567521000048146, 2.3521894000004977]",,,,,,,,,,26,001,H,2023_Feb_16_1347,student_TT_local,2021.1.4,47.74527702749635,
,None,None,None,None,None,None,None,None,None,None,trench,ethnic,6.5,7.5,video&audio/sentence4_TT_3X.mp4,video&audio/goblet_TT_3X.mp4,botany,goblet,None,,,,,,,,,,,,,,,,,,,,,,,,,,,,,,,,,,,,,,,,,,,0,7,7,27,,,,,,,,,,,,,,,,,,,,,,,,,,,,,,,,,,,,,,,,,,,,,,,3298.0771363000385,3304.5935661999974,None, ethnic,"['e', 't', 'h', 'n', 'i', 'c', 'return']","[0.8603288999293, 1.0997881999937817, 1.1955765000311658, 1.371827199938707, 1.5479804000351578, 1.835469999932684, 2.123848699964583]",,,,,,,,,,26,001,H,2023_Feb_16_1347,student_TT_local,2021.1.4,47.74527702749635,
,None,None,None,None,None,None,None,None,None,None,shrewd,revoke,6.5,7.5,video&audio/sentence1_TT_3X.mp4,video&audio/mirage_TT_3X.mp4,malady,mirage,None,,,,,,,,,,,,,,,,,,,,,,,,,,,,,,,,,,,,,,,,,,,0,8,8,6,,,,,,,,,,,,,,,,,,,,,,,,,,,,,,,,,,,,,,,,,,,,,,,3307.762962699984,3314.2801353000104,None, revoke,"['r', 'e', 'v', 'o', 'k', 'e', 'return']","[0.9025961000006646, 1.0459218999603763, 1.317926499992609, 1.5100369999418035, 1.6781047999393195, 1.8379360999679193, 2.110105699975975]",,,,,,,,,,26,001,H,2023_Feb_16_1347,student_TT_local,2021.1.4,47.74527702749635,
,None,None,None,None,None,None,None,None,None,None,clergy,portal,19.5,20.5,video&audio/Sentence6_touch_edited.mp4,video&audio/murmur_touch_edited.mp4,ritual,murmur,None,,,,,,,,,,,,,,,,,,,,,,,,,,,,,,,,,,,,,,,,,,,0,9,9,17,,,,,,,,,,,,,,,,,,,,,,,,,,,,,,,,,,,,,,,,,,,,,,,3317.429909599945,3336.944394399994,None, portal,"['p', 'o', 'r', 't', 'a', 'l', 'return']","[1.038496599998325, 1.2543456999119371, 1.366619999986142, 1.574618999962695, 1.7423659999622032, 1.8782803999492899, 2.190396499936469]",,,,,,,,,,26,001,H,2023_Feb_16_1347,student_TT_local,2021.1.4,47.74527702749635,
,None,None,None,None,None,None,None,None,None,None,feudal,matron,19.5,20.5,video&audio/Sentence3_touch_edited.mp4,video&audio/legion_touch_edited.mp4,subdue,legion,None,,,,,,,,,,,,,,,,,,,,,,,,,,,,,,,,,,,,,,,,,,,0,10,10,26,,,,,,,,,,,,,,,,,,,,,,,,,,,,,,,,,,,,,,,,,,,,,,,3348.2996447000187,3367.8154554000357,None, matron,"['m', 'a', 't', 'r', 'o', 'n', 'return']","[1.0067393999779597, 1.150321599910967, 1.4382955000037327, 1.5343568000243977, 1.678439399925992, 1.8865502999396995, 2.246560400002636]",,,,,,,,,,26,001,H,2023_Feb_16_1347,student_TT_local,2021.1.4,47.74527702749635,
,None,None,None,None,None,None,None,None,None,None,hearth,herbal,19.5,20.5,video&audio/Sentence3_touch_edited.mp4,video&audio/deduct_touch_edited.mp4,hippie,deduct,None,,,,,,,,,,,,,,,,,,,,,,,,,,,,,,,,,,,,,,,,,,,0,11,11,14,,,,,,,,,,,,,,,,,,,,,,,,,,,,,,,,,,,,,,,,,,,,,,,3371.0897703999653,3390.6046696000267,None, herbal,"['h', 'e', 'r', 'b', 'a', 'l', 'return']","[1.1221216999692842, 1.2739275000058115, 1.3459646999835968, 1.4579443000257015, 1.626138799940236, 1.7139011999825016, 2.0579883999889717]",,,,,,,,,,26,001,H,2023_Feb_16_1347,student_TT_local,2021.1.4,47.74527702749635,
,None,None,None,None,None,None,None,None,None,None,output,uphold,19.5,20.5,video&audio/Sentence1_touch_edited.mp4,video&audio/pursue_touch_edited.mp4,debtor,pursue,None,,,,,,,,,,,,,,,,,,,,,,,,,,,,,,,,,,,,,,,,,,,0,12,12,18,,,,,,,,,,,,,,,,,,,,,,,,,,,,,,,,,,,,,,,,,,,,,,,3393.6912649000296,3413.206099299947,None, uphold,"['u', 'p', 'h', 'o', 'l', 'd', 'return']","[0.9765428000828251, 1.30408840009477, 1.6646769000217319, 1.8726062000496313, 2.0881045000860468, 2.2162458000238985, 2.5040308000752702]",,,,,,,,,,26,001,H,2023_Feb_16_1347,student_TT_local,2021.1.4,47.74527702749635,
,None,None,None,None,None,None,None,None,None,None,septic,ordain,19.5,20.5,video&audio/Sentence2_touch_edited.mp4,video&audio/potent_touch_edited.mp4,neural,potent,None,,,,,,,,,,,,,,,,,,,,,,,,,,,,,,,,,,,,,,,,,,,0,13,13,13,,,,,,,,,,,,,,,,,,,,,,,,,,,,,,,,,,,,,,,,,,,,,,,3416.7515129999956,3436.265963200014,None, ordain,"['o', 'r', 'd', 'a', 'i', 'n', 'return']","[1.0682129999622703, 1.2437062000390142, 1.4760701999766752, 1.6676428000209853, 1.7158464000094682, 1.9475533999502659, 2.3720778999850154]",,,,,,,,,,26,001,H,2023_Feb_16_1347,student_TT_local,2021.1.4,47.74527702749635,
,None,None,None,None,None,None,None,None,None,None,induce,mussel,19.5,20.5,video&audio/Sentence4_touch_edited.mp4,video&audio/satire_touch_edited.mp4,cortex,satire,None,,,,,,,,,,,,,,,,,,,,,,,,,,,,,,,,,,,,,,,,,,,0,14,14,21,,,,,,,,,,,,,,,,,,,,,,,,,,,,,,,,,,,,,,,,,,,,,,,3439.6660378000233,3459.179903000011,None, mussel,"['m', 'u', 's', 's', 'l', 'e', 'backspace', 'backspace', 'e', 'l', 'return']","[0.8978690999792889, 1.1698785000480711, 1.3379515999695286, 1.5221738000400364, 1.642350299982354, 1.770035200053826, 2.425875899964012, 2.562236199970357, 2.938129200018011, 3.065997099969536, 3.32211800001096]",,,,,,,,,,26,001,H,2023_Feb_16_1347,student_TT_local,2021.1.4,47.74527702749635,
,None,None,None,None,None,None,None,None,None,None,fungal,mucous,19.5,20.5,video&audio/Sentence5_touch_edited.mp4,video&audio/musket_touch_edited.mp4,subtle,musket,None,,,,,,,,,,,,,,,,,,,,,,,,,,,,,,,,,,,,,,,,,,,0,15,15,22,,,,,,,,,,,,,,,,,,,,,,,,,,,,,,,,,,,,,,,,,,,,,,,3463.5378093000036,3483.052251499961,None, muscous,"['m', 'u', 's', 'c', 'o', 'u', 's', 'return']","[0.9866507000988349, 1.337855500052683, 1.5378540999954566, 1.6818877001060173, 1.9218096000840887, 2.0905714000109583, 2.2819479000754654, 3.209836299996823]",,,,,,,,,,26,001,H,2023_Feb_16_1347,student_TT_local,2021.1.4,47.74527702749635,
,None,None,None,None,None,None,None,None,None,None,tandem,origin,19.5,20.5,video&audio/Sentence4_touch_edited.mp4,video&audio/coerce_touch_edited.mp4,falter,coerce,None,,,,,,,,,,,,,,,,,,,,,,,,,,,,,,,,,,,,,,,,,,,0,16,16,15,,,,,,,,,,,,,,,,,,,,,,,,,,,,,,,,,,,,,,,,,,,,,,,3487.3053459000075,3506.823250300018,None, origin,"['o', 'r', 'g', 'i', 'n', 'backspace', 'backspace', 'backspace', 'i', 'g', 'i', 'n', 'return']","[1.1133597999578342, 1.2580899000167847, 1.473456299980171, 1.5937027999898419, 1.9774481999920681, 2.745741300052032, 2.8818750999635085, 3.2174292999552563, 3.921542300027795, 4.10565200005658, 4.185414200066589, 4.385624999995343, 4.697360399994068]",,,,,,,,,,26,001,H,2023_Feb_16_1347,student_TT_local,2021.1.4,47.74527702749635,
,None,None,None,None,None,None,None,None,None,None,cobble,export,19.5,20.5,video&audio/Sentence2_touch_edited.mp4,video&audio/savant_touch_edited.mp4,cervix,savant,None,,,,,,,,,,,,,,,,,,,,,,,,,,,,,,,,,,,,,,,,,,,0,17,17,19,,,,,,,,,,,,,,,,,,,,,,,,,,,,,,,,,,,,,,,,,,,,,,,3512.552690100041,3532.0676130999345,None, export,"['e', 'x', 'p', 'o', 'r', 't', 'return']","[0.7704072999767959, 1.0826766999671236, 1.2905061999335885, 1.4907576999394223, 1.602438399917446, 1.7944546999642625, 2.0746170999482274]",,,,,,,,,,26,001,H,2023_Feb_16_1347,student_TT_local,2021.1.4,47.74527702749635,
,None,None,None,None,None,None,None,None,None,None,innate,tamper,6.5,7.5,video&audio/sentence1_TT_3X.mp4,video&audio/sonnet_TT_3X.mp4,confer,sonnet,None,,,,,,,,,,,,,,,,,,,,,,,,,,,,,,,,,,,,,,,,,,,0,18,18,12,,,,,,,,,,,,,,,,,,,,,,,,,,,,,,,,,,,,,,,,,,,,,,,3535.1746704999823,3541.6912089999532,None, tamper,"['t', 'a', 'm', 'p', 'e', 'r', 'return']","[0.7939300000434741, 1.001824300037697, 1.090017400099896, 1.2819897000445053, 1.418090600054711, 1.4978862000862136, 1.7700300000142306]",,,,,,,,,,26,001,H,2023_Feb_16_1347,student_TT_local,2021.1.4,47.74527702749635,
,None,None,None,None,None,None,None,None,None,None,girdle,linear,19.5,20.5,video&audio/Sentence6_touch_edited.mp4,video&audio/impose_touch_edited.mp4,belfry,impose,None,,,,,,,,,,,,,,,,,,,,,,,,,,,,,,,,,,,,,,,,,,,0,19,19,23,,,,,,,,,,,,,,,,,,,,,,,,,,,,,,,,,,,,,,,,,,,,,,,3544.5073363999836,3564.0220117999706,None,linear,"['p', 'i', 'e', 'r', 'a', 'backspace', 'backspace', 'backspace', 'backspace', 'backspace', 'backspace', 'backspace', 'l', 'i', 'n', 'e', 'a', 'r', 'return']","[0.9277774998918176, 1.175672399927862, 1.5519371998962015, 1.599722999962978, 1.8960108999162912, 2.8721188999479637, 3.983728999970481, 4.127864699927159, 4.223885899991728, 4.423727099900134, 4.575677199987695, 4.7117396999383345, 5.231679599964991, 5.496050299960189, 5.775748499901965, 5.9837780999951065, 6.143629799946211, 6.288091899943538, 6.687966199941002]",,,,,,,,,,26,001,H,2023_Feb_16_1347,student_TT_local,2021.1.4,47.74527702749635,
,None,None,None,None,None,None,None,None,None,None,patent,defame,6.5,7.5,video&audio/sentence6_TT_3X.mp4,video&audio/quarry_TT_3X.mp4,covert,quarry,None,,,,,,,,,,,,,,,,,,,,,,,,,,,,,,,,,,,,,,,,,,,0,20,20,11,,,,,,,,,,,,,,,,,,,,,,,,,,,,,,,,,,,,,,,,,,,,,,,3575.630730499979,3582.1457635000115,None, defame,"['d', 'e', 'f', 'a', 'm', 'e', 'return']","[0.9152003000490367, 1.1229441000614315, 1.2509973000269383, 1.4752155999885872, 1.5794044999638572, 1.7555460999719799, 2.0189206999493763]",,,,,,,,,,26,001,H,2023_Feb_16_1347,student_TT_local,2021.1.4,47.74527702749635,
,"While you watch the video, imagine yourself typing the word on the screen, like how you did in the imagery practice. While you watch the video and imagine this, rest your hands on your keyboard but DO NOT type until AFTER you see the typing prompt.

Press 'enter/return' to go to the next page.","While watching the video, imagine yourself typing the word on the screen, like how you did in the imagery practice. While you watch the video and imagine this, rest your hands on your keyboard but DO NOT type until AFTER you see the typing prompt.

Press 'enter/return' to go to the next page.",video&audio/Example_AOMI_imagine.png,1.6,1,butter,6.5,7.5,video&audio/amount_TT_3X.mp4,video&audio/butter_TT_3X.mp4,metric,eatery,6.5,7.5,video&audio/sentence2_TT_3X.mp4,video&audio/plight_TT_3X.mp4,ascend,plight,2 = AOMIspec,,,,,,,,,,,,,,,,,,,,,,,,,,,,,,,,,,,,,,,,,,,0,21,21,1,,,,,,,,,,,,,,,,,,,,,,,,,,,,,,,,,,,,,,,,,,,,,,,3585.2091868999414,3591.7274441999616,None, eatery,"['e', 'a', 't', 'e', 'r', 'y', 'return']","[0.9907713000429794, 1.190967500093393, 1.3908951000776142, 1.5347738000564277, 1.6387940000277013, 2.6470157000003383, 3.1026639000047]",,,,,,,,,,26,001,H,2023_Feb_16_1347,student_TT_local,2021.1.4,47.74527702749635,
,None,None,None,None,None,None,None,None,None,None,campus,allure,6.5,7.5,video&audio/sentence6_TT_3X.mp4,video&audio/binder_TT_3X.mp4,forage,binder,None,,,,,,,,,,,,,,,,,,,,,,,,,,,,,,,,,,,,,,,,,,,0,22,22,29,,,,,,,,,,,,,,,,,,,,,,,,,,,,,,,,,,,,,,,,,,,,,,,3595.8762664999813,3602.39282259997,None, allure,"['a', 'l', 'l', 'u', 'r', 'e', 'return']","[0.7890965000260621, 0.9892000999534503, 1.124921099981293, 1.3968988000415266, 1.5249565000412986, 1.6449713000329211, 1.9009917000075802]",,,,,,,,,,26,001,H,2023_Feb_16_1347,student_TT_local,2021.1.4,47.74527702749635,
,None,None,None,None,None,None,None,None,None,None,delude,galley,6.5,7.5,video&audio/sentence2_TT_3X.mp4,video&audio/strife_TT_3X.mp4,tariff,strife,None,,,,,,,,,,,,,,,,,,,,,,,,,,,,,,,,,,,,,,,,,,,0,23,23,7,,,,,,,,,,,,,,,,,,,,,,,,,,,,,,,,,,,,,,,,,,,,,,,3605.3345939000137,3611.849809700041,None, gallery,"['g', 'a', 'l', 'l', 'e', 'r', 'y', 'return']","[1.1001296000322327, 1.2278307999949902, 1.587860699975863, 1.731942699989304, 2.3637898999731988, 2.4518113000085577, 2.7878506999695674, 3.164244099985808]",,,,,,,,,,26,001,H,2023_Feb_16_1347,student_TT_local,2021.1.4,47.74527702749635,
,None,None,None,None,None,None,None,None,None,None,jailer,nettle,19.5,20.5,video&audio/Sentence5_touch_edited.mp4,video&audio/convoy_touch_edited.mp4,plasma,convoy,None,,,,,,,,,,,,,,,,,,,,,,,,,,,,,,,,,,,,,,,,,,,0,24,24,16,,,,,,,,,,,,,,,,,,,,,,,,,,,,,,,,,,,,,,,,,,,,,,,3616.0403454999905,3635.5555074999575,None, nettle,"['n', 'e', 't', 't', 'l', 'e', 'return']","[0.8885626000119373, 1.104548400035128, 1.288535900064744, 1.4485452000517398, 1.7524985000491142, 1.8806434000143781, 2.096601100056432]",,,,,,,,,,26,001,H,2023_Feb_16_1347,student_TT_local,2021.1.4,47.74527702749635,
,None,None,None,None,None,None,None,None,None,None,primal,entail,6.5,7.5,video&audio/sentence5_TT_3X.mp4,video&audio/novice_TT_3X.mp4,parcel,novice,None,,,,,,,,,,,,,,,,,,,,,,,,,,,,,,,,,,,,,,,,,,,0,25,25,4,,,,,,,,,,,,,,,,,,,,,,,,,,,,,,,,,,,,,,,,,,,,,,,3638.684574999963,3645.2003939000424,None, entail,"['e', 'n', 't', 'a', 'i', 'l', 'return']","[0.8537033000029624, 1.0136066999984905, 1.1175420999061316, 1.317510599968955, 1.7656212999718264, 1.9734823999460787, 2.325465500005521]",,,,,,,,,,26,001,H,2023_Feb_16_1347,student_TT_local,2021.1.4,47.74527702749635,
,None,None,None,None,None,None,None,None,None,None,befall,ration,6.5,7.5,video&audio/sentence3_TT_3X.mp4,video&audio/parole_TT_3X.mp4,solemn,parole,None,,,,,,,,,,,,,,,,,,,,,,,,,,,,,,,,,,,,,,,,,,,0,26,26,8,,,,,,,,,,,,,,,,,,,,,,,,,,,,,,,,,,,,,,,,,,,,,,,3648.5582447999623,3655.07438669994,None, ration,"['r', 'a', 't', 'i', 'o', 'n', 'return']","[1.052634400082752, 1.2446013001026586, 1.4363917000591755, 1.5408638000953943, 1.756510200095363, 1.9804649000288919, 2.308628800092265]",,,,,,,,,,26,001,H,2023_Feb_16_1347,student_TT_local,2021.1.4,47.74527702749635,
,"Remember to type as QUICKLY and ACCURATELY as possible after the 'get ready' prompt.

Ask the experimenter any questions now. Please put on the headphones.

You will get one practice trial. Press 'enter/return' when you are ready to start the practice.","Remember to type as QUICKLY and ACCURATELY as you can after the 'get ready' prompt.

Ask the experimenter any questions now. Please put on the headphones.

You will get one practice trial. Press 'enter/return' when you are ready to start the practice.",video&audio/Example_AOMI_total.png,1.8,0.7,None,None,None,None,None,oppose,ghetto,6.5,7.5,video&audio/sentence3_TT_3X.mp4,video&audio/jargon_TT_3X.mp4,frugal,jargon,None,,,,,,,,,,,,,,,,,,,,,,,,,,,,,,,,,,,,,,,,,,,0,27,27,2,,,,,,,,,,,,,,,,,,,,,,,,,,,,,,,,,,,,,,,,,,,,,,,3658.410660399939,3664.927438999992,None, ghetto,"['g', 'h', 'e', 't', 't', 'o', 'return']","[1.0941063999198377, 1.2860217000124976, 1.422378299990669, 1.5821525999344885, 1.7180137999821454, 2.0540214999346063, 2.5582066999049857]",,,,,,,,,,26,001,H,2023_Feb_16_1347,student_TT_local,2021.1.4,47.74527702749635,
,None,None,None,None,None,None,None,None,None,None,joiner,apathy,6.5,7.5,video&audio/sentence6_TT_3X.mp4,video&audio/revolt_TT_3X.mp4,virile,revolt,None,,,,,,,,,,,,,,,,,,,,,,,,,,,,,,,,,,,,,,,,,,,0,28,28,5,,,,,,,,,,,,,,,,,,,,,,,,,,,,,,,,,,,,,,,,,,,,,,,3668.514842099976,3675.0303633000003,None, apathy,"['a', 'p', 'a', 't', 'h', 'y', 'return']","[0.9515372000169009, 1.207386099966243, 2.1353311999700963, 2.3835504999151453, 2.503381500020623, 2.695396399940364, 3.351599699934013]",,,,,,,,,,26,001,H,2023_Feb_16_1347,student_TT_local,2021.1.4,47.74527702749635,
,None,None,None,None,None,None,None,None,None,None,oblige,mystic,6.5,7.5,video&audio/sentence4_TT_3X.mp4,video&audio/infirm_TT_3X.mp4,pulpit,infirm,None,,,,,,,,,,,,,,,,,,,,,,,,,,,,,,,,,,,,,,,,,,,0,29,29,3,,,,,,,,,,,,,,,,,,,,,,,,,,,,,,,,,,,,,,,,,,,,,,,3679.4086614999687,3685.924912599963,None, mystic,"['m', 'y', 's', 't', 'i', 'c', 'return']","[0.9292086999630556, 1.2493679999606684, 1.4255271999863908, 1.561158600030467, 1.8330903999740258, 2.097213999950327, 2.345467700040899]",,,,,,,,,,26,001,H,2023_Feb_16_1347,student_TT_local,2021.1.4,47.74527702749635,
,,,,,,,,,,,,,,,,,,,,typingRatingScale.png,"How would you rate your typing performance in the previous section?

Press a number on your keyboard according to the rating scale below to give your answer. Your first answer will be accepted.",,,,,,,,,,,,,,,,,,,,,,,,,,,,,,,,,,,,,,,,,,,,,0,0,0,0,,,,,,,,,,,,,,,,,,,,,,,,,,,,,,,,,,,,,,,,,,,,,,,,,['3'],[4.1537648000521585],,,,,,,,26,001,H,2023_Feb_16_1347,student_TT_local,2021.1.4,47.74527702749635,
,,,,,,,,,,,,,,,,,,,,imageryCheckScale.png,"In the previous section did you imagine yourself typing?

Press a number on your keyboard according to the rating scale below to give your answer. Your first answer will be accepted.",,,,,,,,,,,,,,,,,,,,,,,,,,,,,,,,,,,,,,,,,,,,,0,1,1,1,,,,,,,,,,,,,,,,,,,,,,,,,,,,,,,,,,,,,,,,,,,,,,,,,['1'],[8.229457399924286],,,,,,,,26,001,H,2023_Feb_16_1347,student_TT_local,2021.1.4,47.74527702749635,
,None,None,None,None,None,None,None,None,None,None,befall,ration,6.5,7.5,video&audio/sentence3_TT_3X.mp4,video&audio/parole_TT_3X.mp4,solemn,parole,None,,,,,,,,,,,,,,,,,,,,,,,,,,,,,,,,,,,,,,,,,,,,,,,,,,,,,,,,,,,0,0,0,8,,,,,,,,,,,,,,,,None,"['b', 'u', 't', 't', 'e', 'r', 'return']","[0.9948162001091987, 1.19509310007561, 1.4589990000240505, 1.611495100078173, 1.7387990000424907, 1.8109430000185966, 2.0914878000039607]",,,,,,,,,,,,,,,,,,,,,None,None, parole,"['p', 'a', 'r', 'o', 'l', 'e', 'return']","[1.4652926999842748, 1.5856700000585988, 1.769205700024031, 2.001305300043896, 2.233337500016205, 2.4332269000587985, 2.6972628000658005]",,,26,001,H,2023_Feb_16_1347,student_TT_local,2021.1.4,47.74527702749635,
,None,None,None,None,None,None,None,None,None,None,innate,tamper,6.5,7.5,video&audio/sentence1_TT_3X.mp4,video&audio/sonnet_TT_3X.mp4,confer,sonnet,None,,,,,,,,,,,,,,,,,,,,,,,,,,,,,,,,,,,,,,,,,,,,,,,,,,,,,,,,,,,0,1,1,12,,,,,,,,,,,,,,,,None,,,,,,,,,,,,,,,,,,,,,,,,None, sonnet,"['s', 'o', 'n', 'n', 'e', 't', 'return']","[1.4262411000672728, 1.5942734000273049, 1.7943025999702513, 1.9385410000104457, 2.0343809999758378, 2.210304500069469, 2.442429000046104]",,,26,001,H,2023_Feb_16_1347,student_TT_local,2021.1.4,47.74527702749635,
,None,None,None,None,None,None,None,None,None,None,oblige,mystic,6.5,7.5,video&audio/sentence4_TT_3X.mp4,video&audio/infirm_TT_3X.mp4,pulpit,infirm,None,,,,,,,,,,,,,,,,,,,,,,,,,,,,,,,,,,,,,,,,,,,,,,,,,,,,,,,,,,,0,2,2,3,,,,,,,,,,,,,,,,None,,,,,,,,,,,,,,,,,,,,,,,,None, infirm,"['i', 'n', 'f', 'i', 'r', 'm', 'return']","[0.9837637000018731, 1.1677452999865636, 1.2958966000005603, 1.4637997999088839, 1.5998551999218762, 1.7437609999906272, 2.096089700004086]",,,26,001,H,2023_Feb_16_1347,student_TT_local,2021.1.4,47.74527702749635,
,None,None,None,None,None,None,None,None,None,None,tandem,origin,19.5,20.5,video&audio/Sentence4_touch_edited.mp4,video&audio/coerce_touch_edited.mp4,falter,coerce,None,,,,,,,,,,,,,,,,,,,,,,,,,,,,,,,,,,,,,,,,,,,,,,,,,,,,,,,,,,,0,3,3,15,,,,,,,,,,,,,,,,None,,,,,,,,,,,,,,,,,,,,,,,,None, coerce,"['c', 'o', 'e', 'r', 'e', 'backspace', 'c', 'e', 'return']","[0.9598829000024125, 1.2162622000323609, 1.4480260000564158, 1.9762363000772893, 2.1681213000556454, 2.984091400052421, 4.10385340009816, 4.223930600099266, 4.504005900002085]",,,26,001,H,2023_Feb_16_1347,student_TT_local,2021.1.4,47.74527702749635,
,None,None,None,None,None,None,None,None,None,None,campus,allure,6.5,7.5,video&audio/sentence6_TT_3X.mp4,video&audio/binder_TT_3X.mp4,forage,binder,None,,,,,,,,,,,,,,,,,,,,,,,,,,,,,,,,,,,,,,,,,,,,,,,,,,,,,,,,,,,0,4,4,29,,,,,,,,,,,,,,,,None,,,,,,,,,,,,,,,,,,,,,,,,None, binder,"['b', 'i', 'n', 'd', 'e', 'w', 'r', 'return']","[0.9674211000092328, 1.143764500040561, 1.3273995999479666, 1.4233768000267446, 1.6316912999609485, 1.6394006999908015, 1.791382999974303, 1.991696699988097]",,,26,001,H,2023_Feb_16_1347,student_TT_local,2021.1.4,47.74527702749635,
,"While you watch the video, imagine yourself typing the word on the screen, like how you did in the imagery practice. While you watch the video and imagine this, rest your hands on your keyboard but DO NOT type until AFTER you see the typing prompt.

Press 'enter/return' to go to the next page.","While watching the video, imagine yourself typing the word on the screen, like how you did in the imagery practice. While you watch the video and imagine this, rest your hands on your keyboard but DO NOT type until AFTER you see the typing prompt.

Press 'enter/return' to go to the next page.",video&audio/Example_AOMI_imagine.png,1.6,1,butter,6.5,7.5,video&audio/amount_TT_3X.mp4,video&audio/butter_TT_3X.mp4,metric,eatery,6.5,7.5,video&audio/sentence2_TT_3X.mp4,video&audio/plight_TT_3X.mp4,ascend,plight,2 = AOMIspec,,,,,,,,,,,,,,,,,,,,,,,,,,,,,,,,,,,,,,,,,,,,,,,,,,,,,,,,,,,0,5,5,1,,,,,,,,,,,,,,,,None,,,,,,,,,,,,,,,,,,,,,,,,None, plight,"['p', 'k', 'i', 's', 'g', 'h', 't', 'backspace', 'backspace', 'backspace', 'backspace', 'backspace', 'backspace', 'l', 'i', 'g', 'h', 't', 'return']","[0.9366517000598833, 1.1205959001090378, 1.3445087000727654, 1.5293115000240505, 1.7689869001042098, 2.512907800031826, 2.6726118000224233, 3.096631000051275, 3.2572714000707492, 4.016560500022024, 4.168595900060609, 4.304478700039908, 4.648514600005001, 5.7929818000411615, 6.040616300073452, 6.304461300023831, 6.465113000012934, 6.608625200111419, 6.832617700099945]",,,26,001,H,2023_Feb_16_1347,student_TT_local,2021.1.4,47.74527702749635,
,None,None,None,None,None,None,None,None,None,None,girdle,linear,19.5,20.5,video&audio/Sentence6_touch_edited.mp4,video&audio/impose_touch_edited.mp4,belfry,impose,None,,,,,,,,,,,,,,,,,,,,,,,,,,,,,,,,,,,,,,,,,,,,,,,,,,,,,,,,,,,0,6,6,23,,,,,,,,,,,,,,,,None,,,,,,,,,,,,,,,,,,,,,,,,None, impose,"['i', 'm', 'p', 'o', 's', 'e', 'return']","[0.9946504000108689, 1.2508397999918088, 1.4747649999335408, 1.6905987999634817, 1.8107726000016555, 1.9470309999305755, 2.186877299915068]",,,26,001,H,2023_Feb_16_1347,student_TT_local,2021.1.4,47.74527702749635,
,None,None,None,None,None,None,None,None,None,None,trench,ethnic,6.5,7.5,video&audio/sentence4_TT_3X.mp4,video&audio/goblet_TT_3X.mp4,botany,goblet,None,,,,,,,,,,,,,,,,,,,,,,,,,,,,,,,,,,,,,,,,,,,,,,,,,,,,,,,,,,,0,7,7,27,,,,,,,,,,,,,,,,None,,,,,,,,,,,,,,,,,,,,,,,,None, goblet,"['g', 'o', 'b', 'l', 'e', 't', 'return']","[1.1346814000280574, 1.342833900009282, 1.4787816000171006, 1.6551939999917522, 1.7994648999301717, 2.0391290999250486, 2.2467633999185637]",,,26,001,H,2023_Feb_16_1347,student_TT_local,2021.1.4,47.74527702749635,
,None,None,None,None,None,None,None,None,None,None,hearth,herbal,19.5,20.5,video&audio/Sentence3_touch_edited.mp4,video&audio/deduct_touch_edited.mp4,hippie,deduct,None,,,,,,,,,,,,,,,,,,,,,,,,,,,,,,,,,,,,,,,,,,,,,,,,,,,,,,,,,,,0,8,8,14,,,,,,,,,,,,,,,,None,,,,,,,,,,,,,,,,,,,,,,,,None, deduct,"['d', 'e', 'd', 'u', 'c', 't', 'return']","[0.8130687000229955, 1.1087866000598297, 1.388820099993609, 1.604795700055547, 1.772785700042732, 1.9729721000185236, 2.4208773999707773]",,,26,001,H,2023_Feb_16_1347,student_TT_local,2021.1.4,47.74527702749635,
,None,None,None,None,None,None,None,None,None,None,hamlet,shroud,6.5,7.5,video&audio/sentence4_TT_3X.mp4,video&audio/sherry_TT_3X.mp4,jackal,sherry,None,,,,,,,,,,,,,,,,,,,,,,,,,,,,,,,,,,,,,,,,,,,,,,,,,,,,,,,,,,,0,9,9,9,,,,,,,,,,,,,,,,None,,,,,,,,,,,,,,,,,,,,,,,,None, sherry,"['s', 'h', 'e', 'r', 'y', 'y', 'backspace', 'backspace', 'r', 'y', 'return']","[1.0840299000265077, 1.283960000029765, 1.404281000024639, 1.5401429999619722, 1.7319678999483585, 1.8600032000103965, 2.5960469000274315, 2.724169999943115, 3.419977099983953, 3.56415420002304, 3.972010000026785]",,,26,001,H,2023_Feb_16_1347,student_TT_local,2021.1.4,47.74527702749635,
,None,None,None,None,None,None,None,None,None,None,shrewd,revoke,6.5,7.5,video&audio/sentence1_TT_3X.mp4,video&audio/mirage_TT_3X.mp4,malady,mirage,None,,,,,,,,,,,,,,,,,,,,,,,,,,,,,,,,,,,,,,,,,,,,,,,,,,,,,,,,,,,0,10,10,6,,,,,,,,,,,,,,,,None,,,,,,,,,,,,,,,,,,,,,,,,None, mirage,"['m', 'i', 'r', 'a', 'g', 'e', 'return']","[1.235372900031507, 1.5075396000174806, 1.6913914000615478, 1.89148870005738, 2.059673000010662, 2.21137210004963, 2.483373900060542]",,,26,001,H,2023_Feb_16_1347,student_TT_local,2021.1.4,47.74527702749635,
,None,None,None,None,None,None,None,None,None,None,joiner,apathy,6.5,7.5,video&audio/sentence6_TT_3X.mp4,video&audio/revolt_TT_3X.mp4,virile,revolt,None,,,,,,,,,,,,,,,,,,,,,,,,,,,,,,,,,,,,,,,,,,,,,,,,,,,,,,,,,,,0,11,11,5,,,,,,,,,,,,,,,,None,,,,,,,,,,,,,,,,,,,,,,,,None, revolt,"['r', 'e', 'v', 'o', 'l', 't', 'return']","[0.9528578999452293, 1.072875399957411, 1.7449196999659762, 2.0408864999189973, 2.24118799995631, 2.4089435000205413, 2.648778799921274]",,,26,001,H,2023_Feb_16_1347,student_TT_local,2021.1.4,47.74527702749635,
,"Remember to type as QUICKLY and ACCURATELY as possible after the 'get ready' prompt.

Ask the experimenter any questions now. Please put on the headphones.

You will get one practice trial. Press 'enter/return' when you are ready to start the practice.","Remember to type as QUICKLY and ACCURATELY as you can after the 'get ready' prompt.

Ask the experimenter any questions now. Please put on the headphones.

You will get one practice trial. Press 'enter/return' when you are ready to start the practice.",video&audio/Example_AOMI_total.png,1.8,0.7,None,None,None,None,None,oppose,ghetto,6.5,7.5,video&audio/sentence3_TT_3X.mp4,video&audio/jargon_TT_3X.mp4,frugal,jargon,None,,,,,,,,,,,,,,,,,,,,,,,,,,,,,,,,,,,,,,,,,,,,,,,,,,,,,,,,,,,0,12,12,2,,,,,,,,,,,,,,,,None,,,,,,,,,,,,,,,,,,,,,,,,None, jargon,"['j', 'a', 'r', 'g', 'o', 'n', 'return']","[1.1226146999979392, 1.2986144999740645, 1.5782435999717563, 1.898200000054203, 2.0504338999744505, 2.2822247999720275, 2.594271600013599]",,,26,001,H,2023_Feb_16_1347,student_TT_local,2021.1.4,47.74527702749635,
,None,None,None,None,None,None,None,None,None,None,output,uphold,19.5,20.5,video&audio/Sentence1_touch_edited.mp4,video&audio/pursue_touch_edited.mp4,debtor,pursue,None,,,,,,,,,,,,,,,,,,,,,,,,,,,,,,,,,,,,,,,,,,,,,,,,,,,,,,,,,,,0,13,13,18,,,,,,,,,,,,,,,,None,,,,,,,,,,,,,,,,,,,,,,,,None, pursue,"['p', 'u', 'r', 's', 'u', 'e', 'return']","[0.7388311000540853, 1.1550607000244781, 1.386901400052011, 1.6748753000283614, 1.851301999995485, 1.9791926000034437, 2.2588581000454724]",,,26,001,H,2023_Feb_16_1347,student_TT_local,2021.1.4,47.74527702749635,
,None,None,None,None,None,None,None,None,None,None,mangle,warble,19.5,20.5,video&audio/Sentence1_touch_edited.mp4,video&audio/fodder_touch_edited.mp4,devise,fodder,None,,,,,,,,,,,,,,,,,,,,,,,,,,,,,,,,,,,,,,,,,,,,,,,,,,,,,,,,,,,0,14,14,24,,,,,,,,,,,,,,,,None,,,,,,,,,,,,,,,,,,,,,,,,None, fodder,"['f', 'o', 'd', 'd', 'e', 'r', 'return']","[1.6861863000085577, 1.9422614999348298, 2.1901434999890625, 2.3581851000199094, 2.57446319994051, 2.7823130999458954, 2.998115799971856]",,,26,001,H,2023_Feb_16_1347,student_TT_local,2021.1.4,47.74527702749635,
,"This is Section 2.

In this section, your task will be the same as before - that is, to type the word you see on the screen AFTER the typing prompt. However, rather than just seeing the word before typing, you will also see a video of someone typing different words to what you will need to type at different speeds. 

Press 'enter/return' to go to the next page.","This is Section 4. 

In this section, your task will be the same as before - that is, to type the word you see on the screen after the typing prompt. You will see a video again, like in Section 2, only this time, the video will show someone the same word that you must type at different speeds. 

Press 'enter/return' to go to the next page.",video&audio/Example_AOMI_layout.png,1.6,0.6,afford,19.5,20.5,video&audio/amount_touch_edited.mp4,video&audio/afford_touch_edited.mp4,hinder,breach,6.5,7.5,video&audio/sentence1_TT_3X.mp4,video&audio/vanity_TT_3X.mp4,matrix,vanity,1 = AOMIgen,,,,,,,,,,,,,,,,,,,,,,,,,,,,,,,,,,,,,,,,,,,,,,,,,,,,,,,,,,,0,15,15,0,,,,,,,,,,,,,,,,None,,,,,,,,,,,,,,,,,,,,,,,,None, vanity,"['v', 'a', 'n', 'i', 't', 'y', 'return']","[1.0350750000216067, 1.6436055999947712, 1.8272536000004038, 2.0671404999447986, 2.2670556999510154, 2.4111667999532074, 3.251354799955152]",,,26,001,H,2023_Feb_16_1347,student_TT_local,2021.1.4,47.74527702749635,
,None,None,None,None,None,None,None,None,None,None,meddle,divert,19.5,20.5,video&audio/Sentence2_touch_edited.mp4,video&audio/upkeep_touch_edited.mp4,kipper,upkeep,None,,,,,,,,,,,,,,,,,,,,,,,,,,,,,,,,,,,,,,,,,,,,,,,,,,,,,,,,,,,0,16,16,25,,,,,,,,,,,,,,,,None,,,,,,,,,,,,,,,,,,,,,,,,None, upkeep,"['u', 'p', 'k', 'e', 'e', 'p', 'delete', 'return']","[0.9006619999418035, 1.212694099987857, 1.48475399997551, 1.7807476000161842, 1.9566615000367165, 2.1008902000030503, 2.4526649999897927, 2.861207599984482]",,,26,001,H,2023_Feb_16_1347,student_TT_local,2021.1.4,47.74527702749635,
,None,None,None,None,None,None,None,None,None,None,induce,mussel,19.5,20.5,video&audio/Sentence4_touch_edited.mp4,video&audio/satire_touch_edited.mp4,cortex,satire,None,,,,,,,,,,,,,,,,,,,,,,,,,,,,,,,,,,,,,,,,,,,,,,,,,,,,,,,,,,,0,17,17,21,,,,,,,,,,,,,,,,None,,,,,,,,,,,,,,,,,,,,,,,,None, satire,"['s', 'a', 't', 'i', 'r', 'e', 'return']","[0.6027517999755219, 0.6986250999616459, 1.114343799999915, 1.314443300012499, 1.418393399915658, 1.5625400999560952, 1.8983856999548152]",,,26,001,H,2023_Feb_16_1347,student_TT_local,2021.1.4,47.74527702749635,
,None,None,None,None,None,None,None,None,None,None,parish,gullet,19.5,20.5,video&audio/Sentence5_touch_edited.mp4,video&audio/manure_touch_edited.mp4,picket,manure,None,,,,,,,,,,,,,,,,,,,,,,,,,,,,,,,,,,,,,,,,,,,,,,,,,,,,,,,,,,,0,18,18,28,,,,,,,,,,,,,,,,None,,,,,,,,,,,,,,,,,,,,,,,,None, manure,"['m', 'a', 'n', 'u', 'r', 'e', 'return']","[0.20667240000329912, 0.7989435000345111, 0.9669463000027463, 1.2468853000318632, 1.3747499999590218, 1.5107518000295386, 1.7505378000205383]",,,26,001,H,2023_Feb_16_1347,student_TT_local,2021.1.4,47.74527702749635,
,None,None,None,None,None,None,None,None,None,None,cobble,export,19.5,20.5,video&audio/Sentence2_touch_edited.mp4,video&audio/savant_touch_edited.mp4,cervix,savant,None,,,,,,,,,,,,,,,,,,,,,,,,,,,,,,,,,,,,,,,,,,,,,,,,,,,,,,,,,,,0,19,19,19,,,,,,,,,,,,,,,,None,,,,,,,,,,,,,,,,,,,,,,,,None, savant,"['s', 'a', 'v', 'a', 'n', 't', 'return']","[0.9540069999638945, 1.106080500059761, 1.321993299992755, 1.4820293000666425, 1.6339589999988675, 1.858005900052376, 2.04238020000048]",,,26,001,H,2023_Feb_16_1347,student_TT_local,2021.1.4,47.74527702749635,
,None,None,None,None,None,None,None,None,None,None,caviar,shrill,19.5,20.5,video&audio/Sentence3_touch_edited.mp4,video&audio/brazen_touch_edited.mp4,piston,brazen,None,,,,,,,,,,,,,,,,,,,,,,,,,,,,,,,,,,,,,,,,,,,,,,,,,,,,,,,,,,,0,20,20,20,,,,,,,,,,,,,,,,None,,,,,,,,,,,,,,,,,,,,,,,,None, brazen,"['b', 'r', 'a', 'z', 'e', 'n', 'return']","[1.2320438000606373, 1.3921122000319883, 1.7039683000184596, 2.0081120000686496, 2.3278760000830516, 2.479889100068249, 2.839898300007917]",,,26,001,H,2023_Feb_16_1347,student_TT_local,2021.1.4,47.74527702749635,
,None,None,None,None,None,None,None,None,None,None,patent,defame,6.5,7.5,video&audio/sentence6_TT_3X.mp4,video&audio/quarry_TT_3X.mp4,covert,quarry,None,,,,,,,,,,,,,,,,,,,,,,,,,,,,,,,,,,,,,,,,,,,,,,,,,,,,,,,,,,,0,21,21,11,,,,,,,,,,,,,,,,None,,,,,,,,,,,,,,,,,,,,,,,,None, quarry,"['q', 'u', 'a', 'r', 'r', 'y', 'return']","[0.6697105000494048, 0.9256415000418201, 1.1658482000930235, 1.469849199987948, 1.6296735000796616, 1.741731800022535, 2.1338266000384465]",,,26,001,H,2023_Feb_16_1347,student_TT_local,2021.1.4,47.74527702749635,
,None,None,None,None,None,None,None,None,None,None,jailer,nettle,19.5,20.5,video&audio/Sentence5_touch_edited.mp4,video&audio/convoy_touch_edited.mp4,plasma,convoy,None,,,,,,,,,,,,,,,,,,,,,,,,,,,,,,,,,,,,,,,,,,,,,,,,,,,,,,,,,,,0,22,22,16,,,,,,,,,,,,,,,,None,,,,,,,,,,,,,,,,,,,,,,,,None, convoy,"['c', 'o', 'n', 'v', 'o', 'y', 'return']","[0.9217193000949919, 1.1458317000651732, 1.4979584000539035, 2.169661600026302, 2.3377670000772923, 2.649673300096765, 3.1779877000954]",,,26,001,H,2023_Feb_16_1347,student_TT_local,2021.1.4,47.74527702749635,
,None,None,None,None,None,None,None,None,None,None,clergy,portal,19.5,20.5,video&audio/Sentence6_touch_edited.mp4,video&audio/murmur_touch_edited.mp4,ritual,murmur,None,,,,,,,,,,,,,,,,,,,,,,,,,,,,,,,,,,,,,,,,,,,,,,,,,,,,,,,,,,,0,23,23,17,,,,,,,,,,,,,,,,None,,,,,,,,,,,,,,,,,,,,,,,,None, murmur,"['m', 'u', 'r', 'm', 'u', 'return']","[1.0275048000039533, 1.3633005999727175, 1.6837345999665558, 1.8832188999513164, 2.17939349997323, 2.7472151999827474]",,,26,001,H,2023_Feb_16_1347,student_TT_local,2021.1.4,47.74527702749635,
,None,None,None,None,None,None,None,None,None,None,fungal,mucous,19.5,20.5,video&audio/Sentence5_touch_edited.mp4,video&audio/musket_touch_edited.mp4,subtle,musket,None,,,,,,,,,,,,,,,,,,,,,,,,,,,,,,,,,,,,,,,,,,,,,,,,,,,,,,,,,,,0,24,24,22,,,,,,,,,,,,,,,,None,,,,,,,,,,,,,,,,,,,,,,,,None, muset,"['m', 'u', 's', 'e', 't', 'return']","[0.6157788999844342, 0.9674621999729425, 1.1914314000168815, 1.7361843000398949, 1.9439520000014454, 2.151546600041911]",,,26,001,H,2023_Feb_16_1347,student_TT_local,2021.1.4,47.74527702749635,
,None,None,None,None,None,None,None,None,None,None,septic,ordain,19.5,20.5,video&audio/Sentence2_touch_edited.mp4,video&audio/potent_touch_edited.mp4,neural,potent,None,,,,,,,,,,,,,,,,,,,,,,,,,,,,,,,,,,,,,,,,,,,,,,,,,,,,,,,,,,,0,25,25,13,,,,,,,,,,,,,,,,None,,,,,,,,,,,,,,,,,,,,,,,,None, potent,"['p', 'o', 't', 'e', 'n', 't', 'return']","[0.8262271999847144, 1.066094300011173, 1.3220658999634907, 1.4820884000509977, 1.6661944000516087, 1.8104809999931604, 2.042305300012231]",,,26,001,H,2023_Feb_16_1347,student_TT_local,2021.1.4,47.74527702749635,
,None,None,None,None,None,None,None,None,None,None,zephyr,fusion,6.5,7.5,video&audio/sentence5_TT_3X.mp4,video&audio/critic_TT_3X.mp4,obsess,critic,None,,,,,,,,,,,,,,,,,,,,,,,,,,,,,,,,,,,,,,,,,,,,,,,,,,,,,,,,,,,0,26,26,10,,,,,,,,,,,,,,,,None,,,,,,,,,,,,,,,,,,,,,,,,None, critic,"['c', 'r', 'i', 't', 'i', 'c', 'return']","[1.1124184000073, 1.4323410000652075, 1.7442733000498265, 1.9681850000051782, 2.128204600070603, 2.3123519000364468, 2.632551999995485]",,,26,001,H,2023_Feb_16_1347,student_TT_local,2021.1.4,47.74527702749635,
,None,None,None,None,None,None,None,None,None,None,primal,entail,6.5,7.5,video&audio/sentence5_TT_3X.mp4,video&audio/novice_TT_3X.mp4,parcel,novice,None,,,,,,,,,,,,,,,,,,,,,,,,,,,,,,,,,,,,,,,,,,,,,,,,,,,,,,,,,,,0,27,27,4,,,,,,,,,,,,,,,,None,,,,,,,,,,,,,,,,,,,,,,,,None, novice,"['n', 'o', 'v', 'i', 'c', 'e', 'return']","[1.203434000024572, 1.4755792999640107, 1.7075843999627978, 1.8753863000310957, 2.04340319999028, 2.4594021999510005, 2.803678199998103]",,,26,001,H,2023_Feb_16_1347,student_TT_local,2021.1.4,47.74527702749635,
,None,None,None,None,None,None,None,None,None,None,feudal,matron,19.5,20.5,video&audio/Sentence3_touch_edited.mp4,video&audio/legion_touch_edited.mp4,subdue,legion,None,,,,,,,,,,,,,,,,,,,,,,,,,,,,,,,,,,,,,,,,,,,,,,,,,,,,,,,,,,,0,28,28,26,,,,,,,,,,,,,,,,None,,,,,,,,,,,,,,,,,,,,,,,,None, legion,"['l', 'e', 'g', 'i', 'o', 'n', 'return']","[1.0814205999486148, 1.2894117999821901, 1.4413491999730468, 1.633334199897945, 1.8252512998878956, 2.0172345999162644, 2.2894366999389604]",,,26,001,H,2023_Feb_16_1347,student_TT_local,2021.1.4,47.74527702749635,
,None,None,None,None,None,None,None,None,None,None,delude,galley,6.5,7.5,video&audio/sentence2_TT_3X.mp4,video&audio/strife_TT_3X.mp4,tariff,strife,None,,,,,,,,,,,,,,,,,,,,,,,,,,,,,,,,,,,,,,,,,,,,,,,,,,,,,,,,,,,0,29,29,7,,,,,,,,,,,,,,,,None,,,,,,,,,,,,,,,,,,,,,,,,None, strife,"['s', 't', 'r', 'i', 'f', 'e', 'return']","[0.8295244999462739, 1.037193699972704, 1.141221099998802, 1.3571705999784172, 1.509196399943903, 1.6771878999425098, 1.9413787999656051]",,,26,001,H,2023_Feb_16_1347,student_TT_local,2021.1.4,47.74527702749635,
,,,,,,,,,,,,,,,,,,,,typingRatingScale.png,"How would you rate your typing performance in the previous section?

Press a number on your keyboard according to the rating scale below to give your answer. Your first answer will be accepted.",,,,,,,,,,,,,,,,,,,,,,,,,,,,,,,,,,,,,,,,,,,,,,,,,,,,,,,,,,,,,0,0,0,0,,,,,,,,,,,,,,,,,,,,,,,,,,,,,,,,,,,,,,,,['3'],[3.9476502001052722],26,001,H,2023_Feb_16_1347,student_TT_local,2021.1.4,47.74527702749635,
,,,,,,,,,,,,,,,,,,,,visualImageryScale.png,"While imagining yourself typing, how clear was your visual image?

Press a number on your keyboard according to the rating scale below to give your answer. Your first answer will be accepted.",,,,,,,,,,,,,,,,,,,,,,,,,,,,,,,,,,,,,,,,,,,,,,,,,,,,,,,,,,,,,0,1,1,1,,,,,,,,,,,,,,,,,,,,,,,,,,,,,,,,,,,,,,,,['4'],[5.366458100033924],26,001,H,2023_Feb_16_1347,student_TT_local,2021.1.4,47.74527702749635,
,,,,,,,,,,,,,,,,,,,,kinestheticImageryScale.png,"While imagining yourself typing, how intense were the sensations associated with the imagined movement?

Press a number on your keyboard according to the rating scale below to give your answer. Your first answer will be accepted.",,,,,,,,,,,,,,,,,,,,,,,,,,,,,,,,,,,,,,,,,,,,,,,,,,,,,,,,,,,,,0,2,2,2,,,,,,,,,,,,,,,,,,,,,,,,,,,,,,,,,,,,,,,,['3'],[9.817284999997355],26,001,H,2023_Feb_16_1347,student_TT_local,2021.1.4,47.74527702749635,
