pracWords,instr_1,instr_2,AOMI_Ima,AOMI_w,AOMI_h,practiceWords,prac_time,prac_bkgd_time,pracVid_1,pracVid_2,baseline_words,control_words,cont_time,cont_bgkd_time,first_vids,second_vids,AOMIfirst_words,AOMIsecond_words,Order,ratingScale,rateInstr,instructLoop.thisRepN,instructLoop.thisTrialN,instructLoop.thisN,instructLoop.thisIndex,practice_control.thisRepN,practice_control.thisTrialN,practice_control.thisN,practice_control.thisIndex,trials_1.thisRepN,trials_1.thisTrialN,trials_1.thisN,trials_1.thisIndex,baseRateLoop.thisRepN,baseRateLoop.thisTrialN,baseRateLoop.thisN,baseRateLoop.thisIndex,AOMIinstrLoop1.thisRepN,AOMIinstrLoop1.thisTrialN,AOMIinstrLoop1.thisN,AOMIinstrLoop1.thisIndex,AOMIpracLoop.thisRepN,AOMIpracLoop.thisTrialN,AOMIpracLoop.thisN,AOMIpracLoop.thisIndex,trials_2.thisRepN,trials_2.thisTrialN,trials_2.thisN,trials_2.thisIndex,AOMI1rateLoop.thisRepN,AOMI1rateLoop.thisTrialN,AOMI1rateLoop.thisN,AOMI1rateLoop.thisIndex,contInstrLoop.thisRepN,contInstrLoop.thisTrialN,contInstrLoop.thisN,contInstrLoop.thisIndex,contPracLoop.thisRepN,contPracLoop.thisTrialN,contPracLoop.thisN,contPracLoop.thisIndex,trials_3.thisRepN,trials_3.thisTrialN,trials_3.thisN,trials_3.thisIndex,contRateLoop.thisRepN,contRateLoop.thisTrialN,contRateLoop.thisN,contRateLoop.thisIndex,AOMIinstrLoop2.thisRepN,AOMIinstrLoop2.thisTrialN,AOMIinstrLoop2.thisN,AOMIinstrLoop2.thisIndex,AOMIpracLoop2.thisRepN,AOMIpracLoop2.thisTrialN,AOMIpracLoop2.thisN,AOMIpracLoop2.thisIndex,trials_4.thisRepN,trials_4.thisTrialN,trials_4.thisN,trials_4.thisIndex,AOMI2rateLoop.thisRepN,AOMI2rateLoop.thisTrialN,AOMI2rateLoop.thisN,AOMI2rateLoop.thisIndex,pracBkgdKeys.keys,pracKeys.keys,pracKeys.rt,baseBkgdKeys.keys,base_typedWord,baseKeys.keys,baseKeys.rt,baseBkgdKeys.rt,baseRateTypeKey.keys,baseRateTypeKey.rt,AOMI1_BkgdKeys.keys,AOMI_promptBkgdKeys.keys,AOMI1pracKeys.keys,AOMI1pracKeys.rt,AOMI1bkdgKeys.keys,AOMI1_typedWord,AOMI1keys.keys,AOMI1keys.rt,AOMI1rateTypeKey.keys,AOMI1rateTypeKey.rt,polygon_prac.started,polygon_prac.stopped,contBkgdKeys_prac.keys,contPrac_typedWord,contKeys_prac.keys,contKeys_prac.rt,polygon.started,polygon.stopped,contBkgdKeys.keys,cont_typedWord,contKeys.keys,contKeys.rt,contTypeKey.keys,contTypeKey.rt,bkgdkeys_prac2.keys,bkgdKeys4.keys,AOMI2_typedWord,keyboardCom4.keys,keyboardCom4.rt,AOMI2typeKey.keys,AOMI2typeKey.rt,participant,session,group,date,expName,psychopyVersion,frameRate,
update,,,,,,,,,,,,,,,,,,,,,,,,,,0,0,0,2,,,,,,,,,,,,,,,,,,,,,,,,,,,,,,,,,,,,,,,,,,,,,,,,,,,,,,,,,None,"['u', 'p', 'd', 'e', 'backspace', 'a', 't', 'e', 'return']","[0.7680681999772787, 1.2160120999906212, 1.856067799963057, 1.9047588999383152, 2.8885353000368923, 3.5046701000537723, 4.0081933999899775, 4.3366576000116765, 5.000611099880189]",,,,,,,,,,,,,,,,,,,,,,,,,,,,,,,,,,,,,,,4,001,A,2023_Jan_31_1546,student_TT_local,2021.1.4,59.72224378720723,
replay,,,,,,,,,,,,,,,,,,,,,,,,,,0,1,1,1,,,,,,,,,,,,,,,,,,,,,,,,,,,,,,,,,,,,,,,,,,,,,,,,,,,,,,,,,None,"['r', 'e', 'p', 'l', 'capslock', 'a', 'y', 'return']","[0.7528015000279993, 1.5287111999932677, 2.3047421001829207, 3.777653800090775, 4.737238300032914, 5.512856899993494, 6.0651756001170725, 6.753035300178453]",,,,,,,,,,,,,,,,,,,,,,,,,,,,,,,,,,,,,,,4,001,A,2023_Jan_31_1546,student_TT_local,2021.1.4,59.72224378720723,
height,,,,,,,,,,,,,,,,,,,,,,,,,,0,2,2,0,,,,,,,,,,,,,,,,,,,,,,,,,,,,,,,,,,,,,,,,,,,,,,,,,,,,,,,,,None,"['h', 'r', 'backspace', 'e', 'i', 'h', 'backspace', 'g', 'h', 'y', 'backspace', 't', 'return']","[0.5286667998880148, 0.7684903000481427, 1.7926864000037313, 2.064598999917507, 2.4166153999976814, 2.7684625999536365, 3.680439099902287, 4.440436699893326, 5.080490400083363, 5.672513900091872, 6.4410182000137866, 6.664978099986911, 7.121411100029945]",,,,,,,,,,,,,,,,,,,,,,,,,,,,,,,,,,,,,,,4,001,A,2023_Jan_31_1546,student_TT_local,2021.1.4,59.72224378720723,
,None,None,None,None,None,None,None,None,None,None,kipper,divert,6.5,7.5,video&audio/meddle_TT_3X.mp4,video&audio/sentence2_TT_3X.mp4,meddle,musket,None,,,,,,,,,,,0,0,0,25,,,,,,,,,,,,,,,,,,,,,,,,,,,,,,,,,,,,,,,,,,,,,,,,,,,,,,,,None, kipper,"['k', 'i', 'p', 'p', 'e', 'r', 'return']","[0.4913327998947352, 0.883832799969241, 1.7069025998935103, 1.9149239999242127, 2.1467375999782234, 2.659187899902463, 3.186789699830115]",,,,,,,,,,,,,,,,,,,,,,,,,,,,,,,,,,,4,001,A,2023_Jan_31_1546,student_TT_local,2021.1.4,59.72224378720723,
,None,None,None,None,None,None,None,None,None,None,plasma,nettle,6.5,7.5,video&audio/jailer_TT_3X.mp4,video&audio/sentence5_TT_3X.mp4,jailer,deduct,None,,,,,,,,,,,0,1,1,16,,,,,,,,,,,,,,,,,,,,,,,,,,,,,,,,,,,,,,,,,,,,,,,,,,,,,,,,['p'], plasma,"['l', 'backspace', 'p', 'l', 'a', 's', 'm', 'a', 'return']","[0.37814789987169206, 1.2587200999259949, 1.8028831998817623, 2.8116003000177443, 3.5383442000020295, 4.010624899994582, 4.330278000095859, 4.498517599888146, 5.147361800074577]",[2.6899133999831975],,,,,,,,,,,,,,,,,,,,,,,,,,,,,,,,,,4,001,A,2023_Jan_31_1546,student_TT_local,2021.1.4,59.72224378720723,
,None,None,None,None,None,None,None,None,None,None,falter,origin,6.5,7.5,video&audio/tandem_TT_3X.mp4,video&audio/sentence4_TT_3X.mp4,tandem,potent,None,,,,,,,,,,,0,2,2,15,,,,,,,,,,,,,,,,,,,,,,,,,,,,,,,,,,,,,,,,,,,,,,,,,,,,,,,,None, falter,"['f', 'a', 'l', 't', 'e', 'r', 'return']","[0.5327278999611735, 0.9244786000344902, 2.324466200079769, 3.044945500092581, 3.325155100086704, 3.652675800025463, 4.405144599964842]",,,,,,,,,,,,,,,,,,,,,,,,,,,,,,,,,,,4,001,A,2023_Jan_31_1546,student_TT_local,2021.1.4,59.72224378720723,
,None,None,None,None,None,None,None,None,None,None,neural,ordain,19.5,20.5,video&audio/septic_touch_edited.mp4,video&audio/Sentence2_touch_edited.mp4,septic,quarry,None,,,,,,,,,,,0,3,3,13,,,,,,,,,,,,,,,,,,,,,,,,,,,,,,,,,,,,,,,,,,,,,,,,,,,,,,,,None, neural,"['n', 'e', 'u', 'r', 'a', 'semicolon', 'backspace', 'l', 'return']","[0.709923000074923, 1.0294248000718653, 1.5254575000144541, 1.8374349002260715, 2.9417772002052516, 3.2298255001660436, 4.005611700005829, 4.725877900142223, 5.174567400012165]",,,,,,,,,,,,,,,,,,,,,,,,,,,,,,,,,,,4,001,A,2023_Jan_31_1546,student_TT_local,2021.1.4,59.72224378720723,
,None,None,None,None,None,None,None,None,None,None,devise,warble,6.5,7.5,video&audio/mangle_TT_3X.mp4,video&audio/sentence1_TT_3X.mp4,mangle,satire,None,,,,,,,,,,,0,4,4,24,,,,,,,,,,,,,,,,,,,,,,,,,,,,,,,,,,,,,,,,,,,,,,,,,,,,,,,,None, devise,"['d', 'e', 'v', 'i', 's', 'e', 'return']","[0.5715008000843227, 1.0353234000504017, 1.5077547000255436, 2.0998281999491155, 2.8192243000958115, 3.4435739999171346, 4.339335300028324]",,,,,,,,,,,,,,,,,,,,,,,,,,,,,,,,,,,4,001,A,2023_Jan_31_1546,student_TT_local,2021.1.4,59.72224378720723,
,"While you watch the video, imagine yourself typing the word on the screen, like how you did in the imagery practice. While you watch the video and imagine this, rest your hands on your keyboard but DO NOT type until AFTER you see the typing prompt.

Press 'enter/return' to go to the next page.","While watching the video, imagine yourself typing the word on the screen, like how you did in the imagery practice. While you watch the video and imagine this, rest your hands on your keyboard but DO NOT type until AFTER you see the typing prompt.

Press 'enter/return' to go to the next page.",video&audio/Example_AOMI_imagine.png,1.6,1,butter,6.5,7.5,video&audio/butter_TT_3X.mp4,video&audio/amount_TT_3X.mp4,ascend,eatery,19.5,20.5,video&audio/metric_touch_edited.mp4,video&audio/Sentence2_touch_edited.mp4,metric,plight,2 = AOMIgen,,,,,,,,,,,0,5,5,1,,,,,,,,,,,,,,,,,,,,,,,,,,,,,,,,,,,,,,,,,,,,,,,,,,,,,,,,None, ascend,"['a', 's', 'c', 'space', 'e', 'n', 'd', 'backspace', 'backspace', 'backspace', 'backspace', 'e', 'n', 'd', 'return']","[0.5306935999542475, 1.7140671000815928, 4.00241700001061, 4.026221100008115, 4.794187899911776, 5.034112799912691, 5.482048199977726, 6.018440600018948, 6.1866059000603855, 6.346185399917886, 6.55491410009563, 7.042579700006172, 7.537914199987426, 7.722147400025278, 8.050096200080588]",,,,,,,,,,,,,,,,,,,,,,,,,,,,,,,,,,,4,001,A,2023_Jan_31_1546,student_TT_local,2021.1.4,59.72224378720723,
,None,None,None,None,None,None,None,None,None,None,debtor,uphold,6.5,7.5,video&audio/output_TT_3X.mp4,video&audio/sentence1_TT_3X.mp4,output,convoy,None,,,,,,,,,,,0,6,6,18,,,,,,,,,,,,,,,,,,,,,,,,,,,,,,,,,,,,,,,,,,,,,,,,,,,,,,,,['d'], debtor,"['e', 'b', 'backspace', 'backspace', 'd', 'e', 'b', 't', 'o', 'r', 'return']","[0.015036199940368533, 0.18310329993255436, 1.111450499854982, 1.3034161999821663, 2.7272157999686897, 3.175499599892646, 3.7514780999626964, 4.007408199831843, 4.143360799876973, 4.3514548998791724, 4.551604799926281]",[2.5494334001559764],,,,,,,,,,,,,,,,,,,,,,,,,,,,,,,,,,4,001,A,2023_Jan_31_1546,student_TT_local,2021.1.4,59.72224378720723,
,None,None,None,None,None,None,None,None,None,None,tariff,galley,19.5,20.5,video&audio/delude_touch_edited.mp4,video&audio/Sentence2_touch_edited.mp4,delude,strife,None,,,,,,,,,,,0,7,7,7,,,,,,,,,,,,,,,,,,,,,,,,,,,,,,,,,,,,,,,,,,,,,,,,,,,,,,,,['t'], tariff,"['t', 'a', 'r', 'i', 'd', 'backspace', 'f', 'f', 'return']","[1.1994706999976188, 1.5916164999362081, 2.5359967998228967, 2.8154825000092387, 3.3676518998108804, 4.160508099943399, 4.375726099824533, 4.615571299800649, 5.0798492999747396]",[2.6423790000844747],,,,,,,,,,,,,,,,,,,,,,,,,,,,,,,,,,4,001,A,2023_Jan_31_1546,student_TT_local,2021.1.4,59.72224378720723,
,None,None,None,None,None,None,None,None,None,None,piston,shrill,6.5,7.5,video&audio/caviar_TT_3X.mp4,video&audio/sentence3_TT_3X.mp4,caviar,pursue,None,,,,,,,,,,,0,8,8,20,,,,,,,,,,,,,,,,,,,,,,,,,,,,,,,,,,,,,,,,,,,,,,,,,,,,,,,,None, piston,"['p', 'i', 's', 't', 'o', 'n', 'return']","[1.1438840001355857, 1.5113016001414508, 2.0949896001257002, 2.231172300176695, 2.831638100091368, 3.150996500160545, 3.7827924001030624]",,,,,,,,,,,,,,,,,,,,,,,,,,,,,,,,,,,4,001,A,2023_Jan_31_1546,student_TT_local,2021.1.4,59.72224378720723,
,"Remember to type as QUICKLY and ACCURATELY as possible after the 'get ready' prompt.

Ask the experimenter any questions now. Please put on the headphones.

You will get one practice trial. Press 'enter/return' when you are ready to start the practice.","Remember to type as QUICKLY and ACCURATELY as you can after the 'get ready' prompt.

Ask the experimenter any questions now. Please put on the headphones.

You will get one practice trial. Press 'enter/return' when you are ready to start the practice.",video&audio/Example_AOMI_total.png,1.8,0.7,None,None,None,None,None,frugal,ghetto,19.5,20.5,video&audio/oppose_touch_edited.mp4,video&audio/Sentence3_touch_edited.mp4,oppose,jargon,None,,,,,,,,,,,0,9,9,2,,,,,,,,,,,,,,,,,,,,,,,,,,,,,,,,,,,,,,,,,,,,,,,,,,,,,,,,None, frugal,"['f', 'r', 'u', 'g', 'a', 'l', 'return']","[0.505414699902758, 0.8889377999585122, 1.601495400071144, 2.345463499892503, 3.0650231998879462, 3.329159799963236, 4.1613362999632955]",,,,,,,,,,,,,,,,,,,,,,,,,,,,,,,,,,,4,001,A,2023_Jan_31_1546,student_TT_local,2021.1.4,59.72224378720723,
,None,None,None,None,None,None,None,None,None,None,subtle,mucous,6.5,7.5,video&audio/fungal_TT_3X.mp4,video&audio/sentence5_TT_3X.mp4,fungal,brazen,None,,,,,,,,,,,0,10,10,22,,,,,,,,,,,,,,,,,,,,,,,,,,,,,,,,,,,,,,,,,,,,,,,,,,,,,,,,['s'], subtle,"['s', 'u', 'b', 't', 'l', 'e', '4', 'backspace', 'return']","[0.4118153997696936, 0.8357736999168992, 1.1876637998502702, 1.531523099867627, 2.3567275998648256, 2.74786869995296, 2.7723097999114543, 3.476001399802044, 3.7234102999791503]",[2.55577059998177],,,,,,,,,,,,,,,,,,,,,,,,,,,,,,,,,,4,001,A,2023_Jan_31_1546,student_TT_local,2021.1.4,59.72224378720723,
,None,None,None,None,None,None,None,None,None,None,confer,tamper,19.5,20.5,video&audio/innate_touch_edited.mp4,video&audio/Sentence1_touch_edited.mp4,innate,critic,None,,,,,,,,,,,0,11,11,12,,,,,,,,,,,,,,,,,,,,,,,,,,,,,,,,,,,,,,,,,,,,,,,,,,,,,,,,None, confer,"['c', 'o', 'n', 'f', 'e', 'r', 'return']","[1.7910870001651347, 2.51889570010826, 2.846947700018063, 3.1188171000685543, 3.598750500008464, 3.8876626000273973, 4.295670400140807]",,,,,,,,,,,,,,,,,,,,,,,,,,,,,,,,,,,4,001,A,2023_Jan_31_1546,student_TT_local,2021.1.4,59.72224378720723,
,None,None,None,None,None,None,None,None,None,None,belfry,linear,6.5,7.5,video&audio/girdle_TT_3X.mp4,video&audio/sentence6_TT_3X.mp4,girdle,manure,None,,,,,,,,,,,0,12,12,23,,,,,,,,,,,,,,,,,,,,,,,,,,,,,,,,,,,,,,,,,,,,,,,,,,,,,,,,None, belfry,"['b', 'e', 'l', 'f', 'r', 'y', 'return']","[1.0781096999999136, 1.3985270000994205, 1.7501121000386775, 2.5575433999765664, 3.101768800057471, 3.485578400082886, 4.422312699956819]",,,,,,,,,,,,,,,,,,,,,,,,,,,,,,,,,,,4,001,A,2023_Jan_31_1546,student_TT_local,2021.1.4,59.72224378720723,
,None,None,None,None,None,None,None,None,None,None,solemn,ration,19.5,20.5,video&audio/befall_touch_edited.mp4,video&audio/Sentence3_touch_edited.mp4,befall,goblet,None,,,,,,,,,,,0,13,13,8,,,,,,,,,,,,,,,,,,,,,,,,,,,,,,,,,,,,,,,,,,,,,,,,,,,,,,,,None, solemn,"['s', 'o', 'l', 'e', 'm', 'n', 'return']","[0.36617699987255037, 1.0141763999126852, 1.230350499972701, 1.5348228998482227, 1.686274099862203, 2.222277699969709, 2.6301330998539925]",,,,,,,,,,,,,,,,,,,,,,,,,,,,,,,,,,,4,001,A,2023_Jan_31_1546,student_TT_local,2021.1.4,59.72224378720723,
,None,None,None,None,None,None,None,None,None,None,cortex,mussel,6.5,7.5,video&audio/induce_TT_3X.mp4,video&audio/sentence4_TT_3X.mp4,induce,savant,None,,,,,,,,,,,0,14,14,21,,,,,,,,,,,,,,,,,,,,,,,,,,,,,,,,,,,,,,,,,,,,,,,,,,,,,,,,None, cortex,"['c', 'o', 'r', 't', 'e', 'x', 'return']","[1.6060781001579016, 1.9586851000785828, 2.326397200115025, 2.8620869000442326, 3.0301818000152707, 4.150673600146547, 5.086347999982536]",,,,,,,,,,,,,,,,,,,,,,,,,,,,,,,,,,,4,001,A,2023_Jan_31_1546,student_TT_local,2021.1.4,59.72224378720723,
,None,None,None,None,None,None,None,None,None,None,botany,ethnic,6.5,7.5,video&audio/trench_TT_3X.mp4,video&audio/sentence4_TT_3X.mp4,trench,fodder,None,,,,,,,,,,,0,15,15,27,,,,,,,,,,,,,,,,,,,,,,,,,,,,,,,,,,,,,,,,,,,,,,,,,,,,,,,,None, botany,"['b', 'o', 't', 'a', 'n', 'y', 'return']","[0.4502083999104798, 0.8263332999777049, 1.250513499835506, 1.914967899909243, 2.1702940999530256, 2.4741355997975916, 2.9628280999604613]",,,,,,,,,,,,,,,,,,,,,,,,,,,,,,,,,,,4,001,A,2023_Jan_31_1546,student_TT_local,2021.1.4,59.72224378720723,
,None,None,None,None,None,None,None,None,None,None,ritual,portal,6.5,7.5,video&audio/clergy_TT_3X.mp4,video&audio/sentence6_TT_3X.mp4,clergy,coerce,None,,,,,,,,,,,0,16,16,17,,,,,,,,,,,,,,,,,,,,,,,,,,,,,,,,,,,,,,,,,,,,,,,,,,,,,,,,None, ritual,"['r', 'i', 't', 'u', 'a', 'l', 'return']","[0.3989150000270456, 0.518358499975875, 0.9743270000908524, 1.2148130999412388, 1.518873899942264, 2.294242599979043, 2.7024646000936627]",,,,,,,,,,,,,,,,,,,,,,,,,,,,,,,,,,,4,001,A,2023_Jan_31_1546,student_TT_local,2021.1.4,59.72224378720723,
,"This is Section 2.

In this section, your task will be the same as before - that is, to type the word you see on the screen after the typing prompt. However, rather than just seeing the word before typing, you will also see a video of someone typing the same word you will need to type at various speeds. 

Press 'enter/return' to go to the next page.","This is Section 4. 

In this section, your task will be the same as before - that is, to type the word you see on the screen after the typing prompt. You will see a video again, like in Section 2, only this time, the video will show someone typing different words to what you must type at various speeds. 

Press 'enter/return' to go to the next page.",video&audio/Example_AOMI_layout.png,1.6,0.6,afford,19.5,20.5,video&audio/afford_touch_edited.mp4,video&audio/amount_touch_edited.mp4,matrix,breach,19.5,20.5,video&audio/hinder_touch_edited.mp4,video&audio/Sentence1_touch_edited.mp4,hinder,vanity,1 = AOMIspec,,,,,,,,,,,0,17,17,0,,,,,,,,,,,,,,,,,,,,,,,,,,,,,,,,,,,,,,,,,,,,,,,,,,,,,,,,None, matric,"['m', 'a', 't', 'r', 'i', 'c', 'return']","[0.5543007000815123, 0.7378998999483883, 1.0980364000424743, 1.4503518000710756, 1.7219595999922603, 2.306144200032577, 2.7299530999734998]",,,,,,,,,,,,,,,,,,,,,,,,,,,,,,,,,,,4,001,A,2023_Jan_31_1546,student_TT_local,2021.1.4,59.72224378720723,
,None,None,None,None,None,None,None,None,None,None,covert,defame,19.5,20.5,video&audio/patent_touch_edited.mp4,video&audio/Sentence6_touch_edited.mp4,patent,binder,None,,,,,,,,,,,0,18,18,11,,,,,,,,,,,,,,,,,,,,,,,,,,,,,,,,,,,,,,,,,,,,,,,,,,,,,,,,None, covert,"['c', 'o', 'v', 'e', 'r', 't', 'return']","[1.0276568999979645, 1.2439334001392126, 2.13985490007326, 3.011929100146517, 3.411898700054735, 3.6201543000061065, 4.531492399983108]",,,,,,,,,,,,,,,,,,,,,,,,,,,,,,,,,,,4,001,A,2023_Jan_31_1546,student_TT_local,2021.1.4,59.72224378720723,
,None,None,None,None,None,None,None,None,None,None,parcel,entail,19.5,20.5,video&audio/primal_touch_edited.mp4,video&audio/Sentence5_touch_edited.mp4,primal,novice,None,,,,,,,,,,,0,19,19,4,,,,,,,,,,,,,,,,,,,,,,,,,,,,,,,,,,,,,,,,,,,,,,,,,,,,,,,,None, parcel,"['p', 'a', 'r', 'c', 'e', 'l', 'return']","[1.0007722000591457, 1.3444562000222504, 1.7844444999936968, 2.0963367999065667, 2.3042339000385255, 2.9766323000658303, 3.7290165000595152]",,,,,,,,,,,,,,,,,,,,,,,,,,,,,,,,,,,4,001,A,2023_Jan_31_1546,student_TT_local,2021.1.4,59.72224378720723,
,None,None,None,None,None,None,None,None,None,None,forage,allure,6.5,7.5,video&audio/campus_TT_3X.mp4,video&audio/sentence6_TT_3X.mp4,campus,legion,None,,,,,,,,,,,0,20,20,29,,,,,,,,,,,,,,,,,,,,,,,,,,,,,,,,,,,,,,,,,,,,,,,,,,,,,,,,None, forage,"['f', 'o', 'r', 'a', 'g', 'e', 'return']","[1.0567151999566704, 1.4962792999576777, 2.0725385998375714, 2.5045896999072284, 2.7606338998302817, 3.000574499834329, 3.784440099960193]",,,,,,,,,,,,,,,,,,,,,,,,,,,,,,,,,,,4,001,A,2023_Jan_31_1546,student_TT_local,2021.1.4,59.72224378720723,
,None,None,None,None,None,None,None,None,None,None,obsess,fusion,19.5,20.5,video&audio/zephyr_touch_edited.mp4,video&audio/Sentence5_touch_edited.mp4,zephyr,sherry,None,,,,,,,,,,,0,21,21,10,,,,,,,,,,,,,,,,,,,,,,,,,,,,,,,,,,,,,,,,,,,,,,,,,,,,,,,,None, obsess,"['o', 'b', 'd', 'e', 'backspace', 'backspace', 's', 'e', 's', 's', 'return']","[0.9218953000381589, 1.2740384000353515, 1.6022506000008434, 2.017637599958107, 2.5215940999332815, 2.6895518000237644, 3.298113299999386, 3.8979682000353932, 4.2017285998445, 4.409899899968877, 4.6898005998227745]",,,,,,,,,,,,,,,,,,,,,,,,,,,,,,,,,,,4,001,A,2023_Jan_31_1546,student_TT_local,2021.1.4,59.72224378720723,
,None,None,None,None,None,None,None,None,None,None,malady,revoke,19.5,20.5,video&audio/shrewd_touch_edited.mp4,video&audio/Sentence1_touch_edited.mp4,shrewd,mirage,None,,,,,,,,,,,0,22,22,6,,,,,,,,,,,,,,,,,,,,,,,,,,,,,,,,,,,,,,,,,,,,,,,,,,,,,,,,None, malady,"['m', 'a', 'l', 'a', 'd', 'y', 'return']","[0.7845177000854164, 1.2805252000689507, 2.2656262000091374, 2.5362774999812245, 3.4410034001339227, 3.688436900032684, 4.192347200121731]",,,,,,,,,,,,,,,,,,,,,,,,,,,,,,,,,,,4,001,A,2023_Jan_31_1546,student_TT_local,2021.1.4,59.72224378720723,
,None,None,None,None,None,None,None,None,None,None,jackal,shroud,19.5,20.5,video&audio/hamlet_touch_edited.mp4,video&audio/Sentence4_touch_edited.mp4,hamlet,parole,None,,,,,,,,,,,0,23,23,9,,,,,,,,,,,,,,,,,,,,,,,,,,,,,,,,,,,,,,,,,,,,,,,,,,,,,,,,['j'], jackal,"['j', 'a', 'c', 'space', 'l', 'backspace', 'backspace', 'k', 'a', 'l', 'return']","[0.49519300018437207, 0.862681700149551, 1.9747143001295626, 1.991003500064835, 2.3987345001660287, 3.086785900173709, 3.2391678001731634, 3.982447599992156, 4.526695700129494, 4.7518555000424385, 5.223403100157157]",[2.3633562000468373],,,,,,,,,,,,,,,,,,,,,,,,,,,,,,,,,,4,001,A,2023_Jan_31_1546,student_TT_local,2021.1.4,59.72224378720723,
,None,None,None,None,None,None,None,None,None,None,cervix,export,6.5,7.5,video&audio/cobble_TT_3X.mp4,video&audio/sentence2_TT_3X.mp4,cobble,murmur,None,,,,,,,,,,,0,24,24,19,,,,,,,,,,,,,,,,,,,,,,,,,,,,,,,,,,,,,,,,,,,,,,,,,,,,,,,,None, cervix,"['f', 'backspace', 'c', 'e', 'r', 'v', 'i', 'x', 'return']","[0.789957599947229, 1.6059725999366492, 2.117689299862832, 2.5256807999685407, 2.8375809998251498, 3.8058420999441296, 4.285738099832088, 5.277587399818003, 5.574430200038478]",,,,,,,,,,,,,,,,,,,,,,,,,,,,,,,,,,,4,001,A,2023_Jan_31_1546,student_TT_local,2021.1.4,59.72224378720723,
,None,None,None,None,None,None,None,None,None,None,subdue,matron,6.5,7.5,video&audio/feudal_TT_3X.mp4,video&audio/sentence3_TT_3X.mp4,feudal,impose,None,,,,,,,,,,,0,25,25,26,,,,,,,,,,,,,,,,,,,,,,,,,,,,,,,,,,,,,,,,,,,,,,,,,,,,,,,,None, subdue,"['s', 'u', 'b', 'd', 'e', 'u', 'backspace', 'backspace', 'd', 'backspace', 'u', 'e', 'return']","[0.9992052000015974, 1.2961762000340968, 1.8637979999184608, 2.647819299949333, 2.687283300096169, 2.7672846999485046, 3.415847900090739, 3.599565099924803, 3.831802200060338, 4.696290099993348, 5.327323900070041, 5.4953260000329465, 5.767966400133446]",,,,,,,,,,,,,,,,,,,,,,,,,,,,,,,,,,,4,001,A,2023_Jan_31_1546,student_TT_local,2021.1.4,59.72224378720723,
,None,None,None,None,None,None,None,None,None,None,picket,gullet,6.5,7.5,video&audio/parish_TT_3X.mp4,video&audio/sentence5_TT_3X.mp4,parish,upkeep,None,,,,,,,,,,,0,26,26,28,,,,,,,,,,,,,,,,,,,,,,,,,,,,,,,,,,,,,,,,,,,,,,,,,,,,,,,,None, picket,"['p', 'i', 'c', 'k', 'e', 't', 'return']","[0.04254999989643693, 0.37870480003766716, 0.811027399962768, 0.8989269998855889, 1.4269542000256479, 1.5307090999558568, 2.1465819999575615]",,,,,,,,,,,,,,,,,,,,,,,,,,,,,,,,,,,4,001,A,2023_Jan_31_1546,student_TT_local,2021.1.4,59.72224378720723,
,None,None,None,None,None,None,None,None,None,None,pulpit,mystic,19.5,20.5,video&audio/oblige_touch_edited.mp4,video&audio/Sentence4_touch_edited.mp4,oblige,infirm,None,,,,,,,,,,,0,27,27,3,,,,,,,,,,,,,,,,,,,,,,,,,,,,,,,,,,,,,,,,,,,,,,,,,,,,,,,,None, pulpit,"['p', 'u', 'l', 'p', 'i', 't', 'return']","[0.6852200999855995, 1.189500299980864, 2.045572299975902, 2.7493266998790205, 3.1352144998963922, 4.069686899892986, 4.621655100025237]",,,,,,,,,,,,,,,,,,,,,,,,,,,,,,,,,,,4,001,A,2023_Jan_31_1546,student_TT_local,2021.1.4,59.72224378720723,
,None,None,None,None,None,None,None,None,None,None,virile,apathy,19.5,20.5,video&audio/joiner_touch_edited.mp4,video&audio/Sentence6_touch_edited.mp4,joiner,revolt,None,,,,,,,,,,,0,28,28,5,,,,,,,,,,,,,,,,,,,,,,,,,,,,,,,,,,,,,,,,,,,,,,,,,,,,,,,,None, virile,"['v', 'i', 'l', 'backspace', 'r', 'i', 'l', 'e', 'return']","[0.6814023999031633, 0.9697147998958826, 1.5370674999430776, 2.273496399866417, 2.9538697998505086, 3.393522100057453, 3.818037600023672, 4.017047700006515, 4.4091624999418855]",,,,,,,,,,,,,,,,,,,,,,,,,,,,,,,,,,,4,001,A,2023_Jan_31_1546,student_TT_local,2021.1.4,59.72224378720723,
,None,None,None,None,None,None,None,None,None,None,hippie,herbal,19.5,20.5,video&audio/hearth_touch_edited.mp4,video&audio/Sentence3_touch_edited.mp4,hearth,sonnet,None,,,,,,,,,,,0,29,29,14,,,,,,,,,,,,,,,,,,,,,,,,,,,,,,,,,,,,,,,,,,,,,,,,,,,,,,,,None, hippie,"['h', 'i', 'p', 'p', 'i', 'e', 'return']","[0.506309200078249, 0.7621138000395149, 1.5468763001263142, 1.7701283001806587, 2.2026994000189006, 2.3627436000388116, 2.738506500143558]",,,,,,,,,,,,,,,,,,,,,,,,,,,,,,,,,,,4,001,A,2023_Jan_31_1546,student_TT_local,2021.1.4,59.72224378720723,
,,,,,,,,,,,,,,,,,,,,typingRatingScale.png,"How would you rate your typing performance in the previous section?

Press a number on your keyboard according to the rating scale below to give your answer. Your first answer will be accepted.",,,,,,,,,,,,,0,0,0,0,,,,,,,,,,,,,,,,,,,,,,,,,,,,,,,,,,,,,,,,,,,,,,,,,,,,,,,,,['3'],[27.37277069990523],,,,,,,,,,,,,,,,,,,,,,,,,,,,,,,,4,001,A,2023_Jan_31_1546,student_TT_local,2021.1.4,59.72224378720723,
,,,,,,,,,,,,,,,,,,,,imageryCheckScale.png,"In the previous section did you imagine yourself typing?

Press a number on your keyboard according to the rating scale below to give your answer. Your first answer will be accepted.",,,,,,,,,,,,,0,1,1,1,,,,,,,,,,,,,,,,,,,,,,,,,,,,,,,,,,,,,,,,,,,,,,,,,,,,,,,,,['1'],[10.276571299880743],,,,,,,,,,,,,,,,,,,,,,,,,,,,,,,,4,001,A,2023_Jan_31_1546,student_TT_local,2021.1.4,59.72224378720723,
,"This is Section 2.

In this section, your task will be the same as before - that is, to type the word you see on the screen after the typing prompt. However, rather than just seeing the word before typing, you will also see a video of someone typing the same word you will need to type at various speeds. 

Press 'enter/return' to go to the next page.","This is Section 4. 

In this section, your task will be the same as before - that is, to type the word you see on the screen after the typing prompt. You will see a video again, like in Section 2, only this time, the video will show someone typing different words to what you must type at various speeds. 

Press 'enter/return' to go to the next page.",video&audio/Example_AOMI_layout.png,1.6,0.6,afford,19.5,20.5,video&audio/afford_touch_edited.mp4,video&audio/amount_touch_edited.mp4,matrix,breach,19.5,20.5,video&audio/hinder_touch_edited.mp4,video&audio/Sentence1_touch_edited.mp4,hinder,vanity,1 = AOMIspec,,,,,,,,,,,,,,,,,,,,,,,,,,,0,0,0,0,,,,,,,,,,,,,,,,,,,,,,,,,,,,,,,,,,,,,,,,,,,,,,,None,None,"['b', 'u', 't', 't', 'e', 'r', 'return']","[0.7726789000444114, 1.0211688000708818, 1.4128839999902993, 1.5806275999639183, 1.8288346000481397, 2.220650700153783, 2.7738061000127345]",None, hinder,"['h', 'i', 'n', 'd', 'e', 'r', 'return']","[0.6761694999877363, 0.9478311999700963, 1.452303199796006, 2.3083333999384195, 2.907923199934885, 3.2842642997857183, 3.9158011998515576]",,,,,,,,,,,,,,,,,,,,,,,,4,001,A,2023_Jan_31_1546,student_TT_local,2021.1.4,59.72224378720723,
,None,None,None,None,None,None,None,None,None,None,pulpit,mystic,19.5,20.5,video&audio/oblige_touch_edited.mp4,video&audio/Sentence4_touch_edited.mp4,oblige,infirm,None,,,,,,,,,,,,,,,,,,,,,,,,,,,0,1,1,3,,,,,,,,,,,,,,,,,,,,,,,,,,,,,,,,,,,,,,,,,,,,,,,,None,,,None, oblige,"['o', 'b', 'l', 'i', 'g', 'e', 'return']","[0.6797519999090582, 1.2080995999276638, 1.6082095999736339, 1.999525799881667, 2.4077546999324113, 2.7036188000347465, 3.2955367998220026]",,,,,,,,,,,,,,,,,,,,,,,,4,001,A,2023_Jan_31_1546,student_TT_local,2021.1.4,59.72224378720723,
,None,None,None,None,None,None,None,None,None,None,falter,origin,6.5,7.5,video&audio/tandem_TT_3X.mp4,video&audio/sentence4_TT_3X.mp4,tandem,potent,None,,,,,,,,,,,,,,,,,,,,,,,,,,,0,2,2,15,,,,,,,,,,,,,,,,,,,,,,,,,,,,,,,,,,,,,,,,,,,,,,,,None,,,None, tandem,"['t', 'a', 'n', 'd', 'e', 'm', 'return']","[0.6357766001019627, 1.171422100160271, 1.579359499970451, 1.8920223000459373, 2.371898600133136, 2.6033710001502186, 3.171348199946806]",,,,,,,,,,,,,,,,,,,,,,,,4,001,A,2023_Jan_31_1546,student_TT_local,2021.1.4,59.72224378720723,
,None,None,None,None,None,None,None,None,None,None,virile,apathy,19.5,20.5,video&audio/joiner_touch_edited.mp4,video&audio/Sentence6_touch_edited.mp4,joiner,revolt,None,,,,,,,,,,,,,,,,,,,,,,,,,,,0,3,3,5,,,,,,,,,,,,,,,,,,,,,,,,,,,,,,,,,,,,,,,,,,,,,,,,None,,,None, joiner,"['j', 'o', 'i', 'n', 'e', 'r', 'return']","[0.6210093998815864, 0.9649843999650329, 1.3088852998334914, 1.661193799925968, 2.0455065998248756, 2.4614051999524236, 3.037496999837458]",,,,,,,,,,,,,,,,,,,,,,,,4,001,A,2023_Jan_31_1546,student_TT_local,2021.1.4,59.72224378720723,
,None,None,None,None,None,None,None,None,None,None,subdue,matron,6.5,7.5,video&audio/feudal_TT_3X.mp4,video&audio/sentence3_TT_3X.mp4,feudal,impose,None,,,,,,,,,,,,,,,,,,,,,,,,,,,0,4,4,26,,,,,,,,,,,,,,,,,,,,,,,,,,,,,,,,,,,,,,,,,,,,,,,,None,,,None, feudal,"['f', 'e', 'u', 'd', 'a', 'l', 'return']","[0.956090799998492, 1.2595263000112027, 1.6520943001378328, 1.9402004999574274, 2.3880843000952154, 2.70814110012725, 3.3481693000067025]",,,,,,,,,,,,,,,,,,,,,,,,4,001,A,2023_Jan_31_1546,student_TT_local,2021.1.4,59.72224378720723,
,None,None,None,None,None,None,None,None,None,None,devise,warble,6.5,7.5,video&audio/mangle_TT_3X.mp4,video&audio/sentence1_TT_3X.mp4,mangle,satire,None,,,,,,,,,,,,,,,,,,,,,,,,,,,0,5,5,24,,,,,,,,,,,,,,,,,,,,,,,,,,,,,,,,,,,,,,,,,,,,,,,,None,,,None, mangle,"['m', 'a', 'n', 'g', 'l', 'e', 'return']","[0.8856024001725018, 1.093844700139016, 1.3657019000966102, 1.749468200141564, 2.2456044000573456, 2.557565600145608, 3.0300505000632256]",,,,,,,,,,,,,,,,,,,,,,,,4,001,A,2023_Jan_31_1546,student_TT_local,2021.1.4,59.72224378720723,
,None,None,None,None,None,None,None,None,None,None,picket,gullet,6.5,7.5,video&audio/parish_TT_3X.mp4,video&audio/sentence5_TT_3X.mp4,parish,upkeep,None,,,,,,,,,,,,,,,,,,,,,,,,,,,0,6,6,28,,,,,,,,,,,,,,,,,,,,,,,,,,,,,,,,,,,,,,,,,,,,,,,,None,,,None, parish,"['p', 'a', 'r', 'i', 's', 'h', 'return']","[0.9913870999589562, 1.1913383000064641, 1.575858399970457, 1.7592273000627756, 2.3752528000622988, 2.6393917000386864, 3.2396446999628097]",,,,,,,,,,,,,,,,,,,,,,,,4,001,A,2023_Jan_31_1546,student_TT_local,2021.1.4,59.72224378720723,
,None,None,None,None,None,None,None,None,None,None,hippie,herbal,19.5,20.5,video&audio/hearth_touch_edited.mp4,video&audio/Sentence3_touch_edited.mp4,hearth,sonnet,None,,,,,,,,,,,,,,,,,,,,,,,,,,,0,7,7,14,,,,,,,,,,,,,,,,,,,,,,,,,,,,,,,,,,,,,,,,,,,,,,,,None,,,None, hearth,"['h', 'e', 'a', 'r', 't', 'h', 'return']","[0.7058973999228328, 1.0257363999262452, 1.4821534999646246, 2.218859599903226, 2.6187921999953687, 2.786035900004208, 3.4736864999867976]",,,,,,,,,,,,,,,,,,,,,,,,4,001,A,2023_Jan_31_1546,student_TT_local,2021.1.4,59.72224378720723,
,None,None,None,None,None,None,None,None,None,None,ritual,portal,6.5,7.5,video&audio/clergy_TT_3X.mp4,video&audio/sentence6_TT_3X.mp4,clergy,coerce,None,,,,,,,,,,,,,,,,,,,,,,,,,,,0,8,8,17,,,,,,,,,,,,,,,,,,,,,,,,,,,,,,,,,,,,,,,,,,,,,,,,None,,,None, clergy,"['c', 'l', 'e', 'r', 'g', 'y', 'return']","[0.7908346999902278, 1.2551947999745607, 1.5191121997777373, 1.7987114998977631, 2.438839999958873, 2.695171499857679, 3.1592214999254793]",,,,,,,,,,,,,,,,,,,,,,,,4,001,A,2023_Jan_31_1546,student_TT_local,2021.1.4,59.72224378720723,
,None,None,None,None,None,None,None,None,None,None,tariff,galley,19.5,20.5,video&audio/delude_touch_edited.mp4,video&audio/Sentence2_touch_edited.mp4,delude,strife,None,,,,,,,,,,,,,,,,,,,,,,,,,,,0,9,9,7,,,,,,,,,,,,,,,,,,,,,,,,,,,,,,,,,,,,,,,,,,,,,,,,None,,,None, delude,"['d', 'e', 'l', 'u', 'f', 'backspace', 'd', 'e', 'return']","[0.6157970998901874, 1.1197074998635799, 1.6725384998135269, 2.0236709997989237, 2.5677865999750793, 3.407956999959424, 3.784507100004703, 4.223642400000244, 4.7279878000263125]",,,,,,,,,,,,,,,,,,,,,,,,4,001,A,2023_Jan_31_1546,student_TT_local,2021.1.4,59.72224378720723,
,None,None,None,None,None,None,None,None,None,None,cervix,export,6.5,7.5,video&audio/cobble_TT_3X.mp4,video&audio/sentence2_TT_3X.mp4,cobble,murmur,None,,,,,,,,,,,,,,,,,,,,,,,,,,,0,10,10,19,,,,,,,,,,,,,,,,,,,,,,,,,,,,,,,,,,,,,,,,,,,,,,,,None,,,None, cobble,"['c', 'o', 'b', 'b', 'l', 'e', 'return']","[0.6045860999729484, 1.2360026999376714, 1.8839555999729782, 2.0443867000285536, 2.53956379997544, 2.7475645998492837, 3.028249999973923]",,,,,,,,,,,,,,,,,,,,,,,,4,001,A,2023_Jan_31_1546,student_TT_local,2021.1.4,59.72224378720723,
,None,None,None,None,None,None,None,None,None,None,piston,shrill,6.5,7.5,video&audio/caviar_TT_3X.mp4,video&audio/sentence3_TT_3X.mp4,caviar,pursue,None,,,,,,,,,,,,,,,,,,,,,,,,,,,0,11,11,20,,,,,,,,,,,,,,,,,,,,,,,,,,,,,,,,,,,,,,,,,,,,,,,,None,,,None, caviar,"['c', 'a', 'v', 'i', 'a', 'r', 'return']","[0.6033283998258412, 0.9552770999725908, 1.4112166999839246, 1.7395255998708308, 1.9312725998461246, 2.5077525000087917, 2.8519313000142574]",,,,,,,,,,,,,,,,,,,,,,,,4,001,A,2023_Jan_31_1546,student_TT_local,2021.1.4,59.72224378720723,
,None,None,None,None,None,None,None,None,None,None,solemn,ration,19.5,20.5,video&audio/befall_touch_edited.mp4,video&audio/Sentence3_touch_edited.mp4,befall,goblet,None,,,,,,,,,,,,,,,,,,,,,,,,,,,0,12,12,8,,,,,,,,,,,,,,,,,,,,,,,,,,,,,,,,,,,,,,,,,,,,,,,,None,,,None, befall,"['b', 'e', 'f', 'a', 'l', 'l', 'return']","[0.787040299968794, 1.1787342000752687, 1.6991465999744833, 2.0185732000973076, 2.8504985999315977, 3.194567000027746, 3.7392651999834925]",,,,,,,,,,,,,,,,,,,,,,,,4,001,A,2023_Jan_31_1546,student_TT_local,2021.1.4,59.72224378720723,
,None,None,None,None,None,None,None,None,None,None,covert,defame,19.5,20.5,video&audio/patent_touch_edited.mp4,video&audio/Sentence6_touch_edited.mp4,patent,binder,None,,,,,,,,,,,,,,,,,,,,,,,,,,,0,13,13,11,,,,,,,,,,,,,,,,,,,,,,,,,,,,,,,,,,,,,,,,,,,,,,,,None,,,None, patent,"['a', 't', 'e', 'n', 't', 'return']","[0.8977252000477165, 1.3055412999819964, 1.5135081000626087, 1.7621363999787718, 2.4017276999074966, 2.786446399986744]",,,,,,,,,,,,,,,,,,,,,,,,4,001,A,2023_Jan_31_1546,student_TT_local,2021.1.4,59.72224378720723,
,None,None,None,None,None,None,None,None,None,None,debtor,uphold,6.5,7.5,video&audio/output_TT_3X.mp4,video&audio/sentence1_TT_3X.mp4,output,convoy,None,,,,,,,,,,,,,,,,,,,,,,,,,,,0,14,14,18,,,,,,,,,,,,,,,,,,,,,,,,,,,,,,,,,,,,,,,,,,,,,,,,None,,,None, output,"['o', 'u', 't', 'p', 'u', 't', 'return']","[1.8444157999474555, 2.1956676999107003, 2.8282961000222713, 3.148669600021094, 3.5957955999765545, 4.036009900039062, 4.475799599895254]",,,,,,,,,,,,,,,,,,,,,,,,4,001,A,2023_Jan_31_1546,student_TT_local,2021.1.4,59.72224378720723,
,None,None,None,None,None,None,None,None,None,None,confer,tamper,19.5,20.5,video&audio/innate_touch_edited.mp4,video&audio/Sentence1_touch_edited.mp4,innate,critic,None,,,,,,,,,,,,,,,,,,,,,,,,,,,0,15,15,12,,,,,,,,,,,,,,,,,,,,,,,,,,,,,,,,,,,,,,,,,,,,,,,,None,,,None, innate,"['i', 'n', 'n', 'a', 't', 'e', 'return']","[0.6590349001344293, 1.1711157001554966, 1.5080437001306564, 2.003311200067401, 2.3792091000359505, 2.611185000045225, 3.122971000149846]",,,,,,,,,,,,,,,,,,,,,,,,4,001,A,2023_Jan_31_1546,student_TT_local,2021.1.4,59.72224378720723,
,None,None,None,None,None,None,None,None,None,None,obsess,fusion,19.5,20.5,video&audio/zephyr_touch_edited.mp4,video&audio/Sentence5_touch_edited.mp4,zephyr,sherry,None,,,,,,,,,,,,,,,,,,,,,,,,,,,0,16,16,10,,,,,,,,,,,,,,,,,,,,,,,,,,,,,,,,,,,,,,,,,,,,,,,,None,,,None, zephyr,"['z', 'e', 'p', 'h', 'y', 'r', 'return']","[0.9624765999615192, 1.410591899883002, 1.7458516999613494, 2.185787199996412, 2.849752699956298, 3.0498650998342782, 3.4021053998731077]",,,,,,,,,,,,,,,,,,,,,,,,4,001,A,2023_Jan_31_1546,student_TT_local,2021.1.4,59.72224378720723,
,None,None,None,None,None,None,None,None,None,None,neural,ordain,19.5,20.5,video&audio/septic_touch_edited.mp4,video&audio/Sentence2_touch_edited.mp4,septic,quarry,None,,,,,,,,,,,,,,,,,,,,,,,,,,,0,17,17,13,,,,,,,,,,,,,,,,,,,,,,,,,,,,,,,,,,,,,,,,,,,,,,,,None,,,None, septic,"['s', 'e', 'p', 't', 'i', 'v', 'backspace', 'c', 'return']","[0.5296948999166489, 1.186736699892208, 1.8179744998924434, 2.1857786998152733, 2.5470808998215944, 2.7941813999786973, 3.529765499988571, 3.8976494998205453, 4.217624299926683]",,,,,,,,,,,,,,,,,,,,,,,,4,001,A,2023_Jan_31_1546,student_TT_local,2021.1.4,59.72224378720723,
,None,None,None,None,None,None,None,None,None,None,kipper,divert,6.5,7.5,video&audio/meddle_TT_3X.mp4,video&audio/sentence2_TT_3X.mp4,meddle,musket,None,,,,,,,,,,,,,,,,,,,,,,,,,,,0,18,18,25,,,,,,,,,,,,,,,,,,,,,,,,,,,,,,,,,,,,,,,,,,,,,,,,None,,,None, meddle,"['m', 'e', 'd', 'd', 'l', 'e', 'return']","[0.7486264000181109, 1.0357363000512123, 1.3648898999672383, 1.6761616000439972, 2.1798924999311566, 2.364717199932784, 2.748771500075236]",,,,,,,,,,,,,,,,,,,,,,,,4,001,A,2023_Jan_31_1546,student_TT_local,2021.1.4,59.72224378720723,
,None,None,None,None,None,None,None,None,None,None,jackal,shroud,19.5,20.5,video&audio/hamlet_touch_edited.mp4,video&audio/Sentence4_touch_edited.mp4,hamlet,parole,None,,,,,,,,,,,,,,,,,,,,,,,,,,,0,19,19,9,,,,,,,,,,,,,,,,,,,,,,,,,,,,,,,,,,,,,,,,,,,,,,,,None,,,None, hamlet,"['h', 'a', 'm', 'e', 'backspace', 'l', 'e', 't', 'return']","[0.5842817998491228, 0.84014209988527, 1.160587899852544, 1.391572899883613, 2.1361450999975204, 2.520084199961275, 2.720118199940771, 2.9435098997782916, 3.368733699899167]",,,,,,,,,,,,,,,,,,,,,,,,4,001,A,2023_Jan_31_1546,student_TT_local,2021.1.4,59.72224378720723,
,None,None,None,None,None,None,None,None,None,None,plasma,nettle,6.5,7.5,video&audio/jailer_TT_3X.mp4,video&audio/sentence5_TT_3X.mp4,jailer,deduct,None,,,,,,,,,,,,,,,,,,,,,,,,,,,0,20,20,16,,,,,,,,,,,,,,,,,,,,,,,,,,,,,,,,,,,,,,,,,,,,,,,,None,,,None, jailer,"['j', 'a', 'i', 'l', 'e', 'r', 'return']","[0.6946396001148969, 1.5353808000218123, 2.3420380000025034, 2.6381918000988662, 2.8302043001167476, 3.1905696000903845, 3.5020455999765545]",,,,,,,,,,,,,,,,,,,,,,,,4,001,A,2023_Jan_31_1546,student_TT_local,2021.1.4,59.72224378720723,
,None,None,None,None,None,None,None,None,None,None,belfry,linear,6.5,7.5,video&audio/girdle_TT_3X.mp4,video&audio/sentence6_TT_3X.mp4,girdle,manure,None,,,,,,,,,,,,,,,,,,,,,,,,,,,0,21,21,23,,,,,,,,,,,,,,,,,,,,,,,,,,,,,,,,,,,,,,,,,,,,,,,,None,,,None, girdle,"['g', 'i', 'r', 'd', 'l', 'e', 'return']","[1.1620855999644846, 1.2977751998696476, 1.7382334999274462, 2.0979428999125957, 2.2660510998684913, 2.457895099883899, 2.697676100069657]",,,,,,,,,,,,,,,,,,,,,,,,4,001,A,2023_Jan_31_1546,student_TT_local,2021.1.4,59.72224378720723,
,None,None,None,None,None,None,None,None,None,None,cortex,mussel,6.5,7.5,video&audio/induce_TT_3X.mp4,video&audio/sentence4_TT_3X.mp4,induce,savant,None,,,,,,,,,,,,,,,,,,,,,,,,,,,0,22,22,21,,,,,,,,,,,,,,,,,,,,,,,,,,,,,,,,,,,,,,,,,,,,,,,,None,,,None, induce,"['i', 'n', 'd', 'u', 'c', 'e', 'return']","[0.49066340015269816, 0.7468113000504673, 1.1233560000546277, 1.3146137001458555, 1.4989593999926, 1.8034679000265896, 2.3311660999897867]",,,,,,,,,,,,,,,,,,,,,,,,4,001,A,2023_Jan_31_1546,student_TT_local,2021.1.4,59.72224378720723,
,None,None,None,None,None,None,None,None,None,None,botany,ethnic,6.5,7.5,video&audio/trench_TT_3X.mp4,video&audio/sentence4_TT_3X.mp4,trench,fodder,None,,,,,,,,,,,,,,,,,,,,,,,,,,,0,23,23,27,,,,,,,,,,,,,,,,,,,,,,,,,,,,,,,,,,,,,,,,,,,,,,,,None,,,None, trench,"['t', 'r', 'e', 'n', 'c', 'h', 'return']","[1.6704704998992383, 1.9423837000504136, 2.262115800054744, 2.4225729999598116, 2.7581911000888795, 2.8296314999461174, 3.301796699874103]",,,,,,,,,,,,,,,,,,,,,,,,4,001,A,2023_Jan_31_1546,student_TT_local,2021.1.4,59.72224378720723,
,None,None,None,None,None,None,None,None,None,None,malady,revoke,19.5,20.5,video&audio/shrewd_touch_edited.mp4,video&audio/Sentence1_touch_edited.mp4,shrewd,mirage,None,,,,,,,,,,,,,,,,,,,,,,,,,,,0,24,24,6,,,,,,,,,,,,,,,,,,,,,,,,,,,,,,,,,,,,,,,,,,,,,,,,None,,,None, shrewd,"['s', 'h', 'r', 'e', 'w', 'x', 'd', 'backspace', 'd', 'return']","[0.3082759000826627, 0.7153805000707507, 0.9800646000076085, 1.412664300063625, 1.8281652999576181, 2.2754267998971045, 2.283624399919063, 3.019787000026554, 3.419911599950865, 3.8753623000811785]",,,,,,,,,,,,,,,,,,,,,,,,4,001,A,2023_Jan_31_1546,student_TT_local,2021.1.4,59.72224378720723,
,"Remember to type as QUICKLY and ACCURATELY as possible after the 'get ready' prompt.

Ask the experimenter any questions now. Please put on the headphones.

You will get one practice trial. Press 'enter/return' when you are ready to start the practice.","Remember to type as QUICKLY and ACCURATELY as you can after the 'get ready' prompt.

Ask the experimenter any questions now. Please put on the headphones.

You will get one practice trial. Press 'enter/return' when you are ready to start the practice.",video&audio/Example_AOMI_total.png,1.8,0.7,None,None,None,None,None,frugal,ghetto,19.5,20.5,video&audio/oppose_touch_edited.mp4,video&audio/Sentence3_touch_edited.mp4,oppose,jargon,None,,,,,,,,,,,,,,,,,,,,,,,,,,,0,25,25,2,,,,,,,,,,,,,,,,,,,,,,,,,,,,,,,,,,,,,,,,,,,,,,,,None,,,None, oppose,"['o', 'p', 'p', 'o', 's', 'e', 'return']","[0.6594573000911623, 1.083260300103575, 1.331169500015676, 2.1875855000689626, 2.4115173001773655, 3.0760932001285255, 3.6832114001736045]",,,,,,,,,,,,,,,,,,,,,,,,4,001,A,2023_Jan_31_1546,student_TT_local,2021.1.4,59.72224378720723,
,None,None,None,None,None,None,None,None,None,None,forage,allure,6.5,7.5,video&audio/campus_TT_3X.mp4,video&audio/sentence6_TT_3X.mp4,campus,legion,None,,,,,,,,,,,,,,,,,,,,,,,,,,,0,26,26,29,,,,,,,,,,,,,,,,,,,,,,,,,,,,,,,,,,,,,,,,,,,,,,,,None,,,None, campus,"['c', 'a', 'm', 'p', 'u', 's', 'return']","[0.9819720999803394, 1.3101935000158846, 1.773542799986899, 2.1578593000303954, 2.982517900178209, 3.126292300177738, 3.566275899996981]",,,,,,,,,,,,,,,,,,,,,,,,4,001,A,2023_Jan_31_1546,student_TT_local,2021.1.4,59.72224378720723,
,"While you watch the video, imagine yourself typing the word on the screen, like how you did in the imagery practice. While you watch the video and imagine this, rest your hands on your keyboard but DO NOT type until AFTER you see the typing prompt.

Press 'enter/return' to go to the next page.","While watching the video, imagine yourself typing the word on the screen, like how you did in the imagery practice. While you watch the video and imagine this, rest your hands on your keyboard but DO NOT type until AFTER you see the typing prompt.

Press 'enter/return' to go to the next page.",video&audio/Example_AOMI_imagine.png,1.6,1,butter,6.5,7.5,video&audio/butter_TT_3X.mp4,video&audio/amount_TT_3X.mp4,ascend,eatery,19.5,20.5,video&audio/metric_touch_edited.mp4,video&audio/Sentence2_touch_edited.mp4,metric,plight,2 = AOMIgen,,,,,,,,,,,,,,,,,,,,,,,,,,,0,27,27,1,,,,,,,,,,,,,,,,,,,,,,,,,,,,,,,,,,,,,,,,,,,,,,,,None,,,None, metric,"['m', 'e', 'r', 't', 'backspace', 'backspace', 'r', 'backspace', 't', 'r', 'i', 'c', 'return']","[0.8059830998536199, 1.0139500999357551, 1.4869961999356747, 2.0216161999851465, 2.517964999889955, 2.6629724998492748, 2.9501624999102205, 3.781761399935931, 4.053794499952346, 4.670146899996325, 4.805778399808332, 5.3269720999524, 5.62204990000464]",,,,,,,,,,,,,,,,,,,,,,,,4,001,A,2023_Jan_31_1546,student_TT_local,2021.1.4,59.72224378720723,
,None,None,None,None,None,None,None,None,None,None,parcel,entail,19.5,20.5,video&audio/primal_touch_edited.mp4,video&audio/Sentence5_touch_edited.mp4,primal,novice,None,,,,,,,,,,,,,,,,,,,,,,,,,,,0,28,28,4,,,,,,,,,,,,,,,,,,,,,,,,,,,,,,,,,,,,,,,,,,,,,,,,None,,,None, primal,"['p', 'r', 'i', 'm', 'a', 'semicolon', 'backspace', 'l', 'return']","[0.808039200026542, 1.1838207999244332, 1.6717894999310374, 2.1357301000971347, 2.576716500101611, 2.84818709990941, 3.4968761999625713, 4.008575800107792, 4.3922160000074655]",,,,,,,,,,,,,,,,,,,,,,,,4,001,A,2023_Jan_31_1546,student_TT_local,2021.1.4,59.72224378720723,
,None,None,None,None,None,None,None,None,None,None,subtle,mucous,6.5,7.5,video&audio/fungal_TT_3X.mp4,video&audio/sentence5_TT_3X.mp4,fungal,brazen,None,,,,,,,,,,,,,,,,,,,,,,,,,,,0,29,29,22,,,,,,,,,,,,,,,,,,,,,,,,,,,,,,,,,,,,,,,,,,,,,,,,None,,,None, fungal,"['f', 'u', 'n', 'g', 'a', 'semicolon', 'backspace', 'l', 'return']","[0.5728164999745786, 0.7966539000626653, 1.0528925999533385, 1.3891447000205517, 1.6127160000614822, 2.1899234999436885, 2.7805616999976337, 3.1646773000247777, 3.652615200029686]",,,,,,,,,,,,,,,,,,,,,,,,4,001,A,2023_Jan_31_1546,student_TT_local,2021.1.4,59.72224378720723,
,,,,,,,,,,,,,,,,,,,,typingRatingScale.png,"How would you rate your typing performance in the previous section?

Press a number on your keyboard according to the rating scale below to give your answer. Your first answer will be accepted.",,,,,,,,,,,,,,,,,,,,,,,,,,,,,0,0,0,0,,,,,,,,,,,,,,,,,,,,,,,,,,,,,,,,,,,,,,,,,,,,,,,,,,,['4'],[10.66521819983609],,,,,,,,,,,,,,,,,,,,,,4,001,A,2023_Jan_31_1546,student_TT_local,2021.1.4,59.72224378720723,
,,,,,,,,,,,,,,,,,,,,visualImageryScale.png,"While imagining yourself typing, how clear was your visual image?

Press a number on your keyboard according to the rating scale below to give your answer. Your first answer will be accepted.",,,,,,,,,,,,,,,,,,,,,,,,,,,,,0,1,1,1,,,,,,,,,,,,,,,,,,,,,,,,,,,,,,,,,,,,,,,,,,,,,,,,,,,['3'],[8.212096000090241],,,,,,,,,,,,,,,,,,,,,,4,001,A,2023_Jan_31_1546,student_TT_local,2021.1.4,59.72224378720723,
,,,,,,,,,,,,,,,,,,,,kinestheticImageryScale.png,"While imagining yourself typing, how intense were the sensations associated with the imagined movement?

Press a number on your keyboard according to the rating scale below to give your answer. Your first answer will be accepted.",,,,,,,,,,,,,,,,,,,,,,,,,,,,,0,2,2,2,,,,,,,,,,,,,,,,,,,,,,,,,,,,,,,,,,,,,,,,,,,,,,,,,,,['2'],[7.064361199969426],,,,,,,,,,,,,,,,,,,,,,4,001,A,2023_Jan_31_1546,student_TT_local,2021.1.4,59.72224378720723,
,None,None,None,None,None,None,None,None,None,None,cervix,export,6.5,7.5,video&audio/cobble_TT_3X.mp4,video&audio/sentence2_TT_3X.mp4,cobble,murmur,None,,,,,,,,,,,,,,,,,,,,,,,,,,,,,,,,,,,,,,,,,,,0,0,0,19,,,,,,,,,,,,,,,,,,,,,,,,,,,,,,,,,,,,,,,,,2934.7270867999177,2941.231045599794,None, butter,"['b', 'u', 't', 't', 'e', 'r', 'return']","[0.8311883001588285, 1.1104173001367599, 1.4945461000315845, 1.6943994001485407, 1.9747409000992775, 2.326070500072092, 2.8310933001339436]",2968.951313099824,2975.465673299972,None, export,"['e', 'x', 'x', 'p', 'o', 'backspace', 'backspace', 'backspace', 'p', 'o', 'r', 't', 'return']","[0.8057285998947918, 1.5890069999732077, 1.732682100031525, 1.748501299880445, 2.0369464000687003, 2.452977899927646, 2.6125785999465734, 3.020489800022915, 3.4285184000618756, 3.644542299909517, 3.7894671000540257, 4.140692299930379, 4.637098900042474]",,,,,,,,,,4,001,A,2023_Jan_31_1546,student_TT_local,2021.1.4,59.72224378720723,
,None,None,None,None,None,None,None,None,None,None,ritual,portal,6.5,7.5,video&audio/clergy_TT_3X.mp4,video&audio/sentence6_TT_3X.mp4,clergy,coerce,None,,,,,,,,,,,,,,,,,,,,,,,,,,,,,,,,,,,,,,,,,,,0,1,1,17,,,,,,,,,,,,,,,,,,,,,,,,,,,,,,,,,,,,,,,,,,,,,,,2981.1216879999265,2987.633994799806,None, portal,"['p', 'o', 'r', 't', 'a', 'l', 'return']","[1.0533139000181109, 1.3081227999646217, 1.5323455999605358, 1.8761634000111371, 2.460198000073433, 2.685097600100562, 3.164515299955383]",,,,,,,,,,4,001,A,2023_Jan_31_1546,student_TT_local,2021.1.4,59.72224378720723,
,None,None,None,None,None,None,None,None,None,None,parcel,entail,19.5,20.5,video&audio/primal_touch_edited.mp4,video&audio/Sentence5_touch_edited.mp4,primal,novice,None,,,,,,,,,,,,,,,,,,,,,,,,,,,,,,,,,,,,,,,,,,,0,2,2,4,,,,,,,,,,,,,,,,,,,,,,,,,,,,,,,,,,,,,,,,,,,,,,,2991.8403497999534,3011.345998399891,None, entail,"['e', 'n', 't', 'a', 'i', 'l', 'return']","[0.8389000999741256, 1.101813699817285, 1.5255605999846011, 1.7582421000115573, 2.3026725999079645, 2.542564099887386, 3.1181285998318344]",,,,,,,,,,4,001,A,2023_Jan_31_1546,student_TT_local,2021.1.4,59.72224378720723,
,None,None,None,None,None,None,None,None,None,None,cortex,mussel,6.5,7.5,video&audio/induce_TT_3X.mp4,video&audio/sentence4_TT_3X.mp4,induce,savant,None,,,,,,,,,,,,,,,,,,,,,,,,,,,,,,,,,,,,,,,,,,,0,3,3,21,,,,,,,,,,,,,,,,,,,,,,,,,,,,,,,,,,,,,,,,,,,,,,,3015.499962099828,3022.016524599865,None, mussel,"['m', 'u', 's', 's', 'e', 'l', 'return']","[0.738884599879384, 1.0580571999307722, 1.4339643998537213, 1.7298967998940498, 2.201808099867776, 2.690237999893725, 3.2018752999138087]",,,,,,,,,,4,001,A,2023_Jan_31_1546,student_TT_local,2021.1.4,59.72224378720723,
,None,None,None,None,None,None,None,None,None,None,neural,ordain,19.5,20.5,video&audio/septic_touch_edited.mp4,video&audio/Sentence2_touch_edited.mp4,septic,quarry,None,,,,,,,,,,,,,,,,,,,,,,,,,,,,,,,,,,,,,,,,,,,0,4,4,13,,,,,,,,,,,,,,,,,,,,,,,,,,,,,,,,,,,,,,,,,,,,,,,3026.257638099836,3045.765359299956,None, ordain,"['o', 'r', 'd', 'a', 'i', 'n', 'return']","[0.8771426999010146, 1.2050377000123262, 1.6209897000808269, 2.077213899930939, 2.6133743000682443, 2.9408183000050485, 3.461377900093794]",,,,,,,,,,4,001,A,2023_Jan_31_1546,student_TT_local,2021.1.4,59.72224378720723,
,"While you watch the video, imagine yourself typing the word on the screen, like how you did in the imagery practice. While you watch the video and imagine this, rest your hands on your keyboard but DO NOT type until AFTER you see the typing prompt.

Press 'enter/return' to go to the next page.","While watching the video, imagine yourself typing the word on the screen, like how you did in the imagery practice. While you watch the video and imagine this, rest your hands on your keyboard but DO NOT type until AFTER you see the typing prompt.

Press 'enter/return' to go to the next page.",video&audio/Example_AOMI_imagine.png,1.6,1,butter,6.5,7.5,video&audio/butter_TT_3X.mp4,video&audio/amount_TT_3X.mp4,ascend,eatery,19.5,20.5,video&audio/metric_touch_edited.mp4,video&audio/Sentence2_touch_edited.mp4,metric,plight,2 = AOMIgen,,,,,,,,,,,,,,,,,,,,,,,,,,,,,,,,,,,,,,,,,,,0,5,5,1,,,,,,,,,,,,,,,,,,,,,,,,,,,,,,,,,,,,,,,,,,,,,,,3050.271462699864,3069.780362999998,None, eatery,"['e', 'a', 't', 'e', 'r', 'y', 'return']","[0.379963600076735, 0.9471110999584198, 1.2829582998529077, 1.9231434999965131, 2.370852399850264, 3.2989004000555724, 3.659987200051546]",,,,,,,,,,4,001,A,2023_Jan_31_1546,student_TT_local,2021.1.4,59.72224378720723,
,None,None,None,None,None,None,None,None,None,None,virile,apathy,19.5,20.5,video&audio/joiner_touch_edited.mp4,video&audio/Sentence6_touch_edited.mp4,joiner,revolt,None,,,,,,,,,,,,,,,,,,,,,,,,,,,,,,,,,,,,,,,,,,,0,6,6,5,,,,,,,,,,,,,,,,,,,,,,,,,,,,,,,,,,,,,,,,,,,,,,,3074.4715187998954,3093.992922999896,None, apathy,"['a', 'p', 'a', 'h', 'y', 'return']","[0.8939898000098765, 1.4217433000449091, 1.6776441000401974, 2.781629899982363, 3.077896000118926, 3.5422191000543535]",,,,,,,,,,4,001,A,2023_Jan_31_1546,student_TT_local,2021.1.4,59.72224378720723,
,None,None,None,None,None,None,None,None,None,None,subdue,matron,6.5,7.5,video&audio/feudal_TT_3X.mp4,video&audio/sentence3_TT_3X.mp4,feudal,impose,None,,,,,,,,,,,,,,,,,,,,,,,,,,,,,,,,,,,,,,,,,,,0,7,7,26,,,,,,,,,,,,,,,,,,,,,,,,,,,,,,,,,,,,,,,,,,,,,,,3098.5574254000094,3105.058940500021,None, matron,"['m', 'a', 't', 'r', 'o', 'n', 'return']","[0.7072266000322998, 0.9140753999818116, 1.1782054998911917, 1.4101919999811798, 2.010471399873495, 2.282868299866095, 2.746877099853009]",,,,,,,,,,4,001,A,2023_Jan_31_1546,student_TT_local,2021.1.4,59.72224378720723,
,None,None,None,None,None,None,None,None,None,None,subtle,mucous,6.5,7.5,video&audio/fungal_TT_3X.mp4,video&audio/sentence5_TT_3X.mp4,fungal,brazen,None,,,,,,,,,,,,,,,,,,,,,,,,,,,,,,,,,,,,,,,,,,,0,8,8,22,,,,,,,,,,,,,,,,,,,,,,,,,,,,,,,,,,,,,,,,,,,,,,,3108.8629224000033,3115.389518099837,None, mucous,"['m', 'u', 'c', 'o', 'u', 'a', 'backspace', 's', 'return']","[0.7333947001025081, 1.021439400035888, 1.3020480000413954, 1.5897969000507146, 1.8850724999792874, 2.149186900118366, 2.605722700012848, 2.8695924000348896, 3.348928299965337]",,,,,,,,,,4,001,A,2023_Jan_31_1546,student_TT_local,2021.1.4,59.72224378720723,
,None,None,None,None,None,None,None,None,None,None,solemn,ration,19.5,20.5,video&audio/befall_touch_edited.mp4,video&audio/Sentence3_touch_edited.mp4,befall,goblet,None,,,,,,,,,,,,,,,,,,,,,,,,,,,,,,,,,,,,,,,,,,,0,9,9,8,,,,,,,,,,,,,,,,,,,,,,,,,,,,,,,,,,,,,,,,,,,,,,,3119.779170899885,3139.2933266998734,None, ration,"['r', 'a', 't', 'i', 'o', 'n', 'return']","[0.9556727998424321, 1.4676953998859972, 1.7320107999257743, 2.379458799958229, 2.595703799976036, 2.9635826000012457, 3.4996631999965757]",,,,,,,,,,4,001,A,2023_Jan_31_1546,student_TT_local,2021.1.4,59.72224378720723,
,None,None,None,None,None,None,None,None,None,None,devise,warble,6.5,7.5,video&audio/mangle_TT_3X.mp4,video&audio/sentence1_TT_3X.mp4,mangle,satire,None,,,,,,,,,,,,,,,,,,,,,,,,,,,,,,,,,,,,,,,,,,,0,10,10,24,,,,,,,,,,,,,,,,,,,,,,,,,,,,,,,,,,,,,,,,,,,,,,,3204.92563029984,3211.435230099829,None, warble,"['w', 'a', 'r', 'b', 'l', 'e', 'return']","[0.7150912000797689, 1.0264300000853837, 1.4274375000968575, 1.55429120012559, 2.2346020000986755, 2.4665906000882387, 2.8184412999544293]",,,,,,,,,,4,001,A,2023_Jan_31_1546,student_TT_local,2021.1.4,59.72224378720723,
,None,None,None,None,None,None,None,None,None,None,kipper,divert,6.5,7.5,video&audio/meddle_TT_3X.mp4,video&audio/sentence2_TT_3X.mp4,meddle,musket,None,,,,,,,,,,,,,,,,,,,,,,,,,,,,,,,,,,,,,,,,,,,0,11,11,25,,,,,,,,,,,,,,,,,,,,,,,,,,,,,,,,,,,,,,,,,,,,,,,3215.2935861998703,3221.8125745998695,None, divert,"['d', 'i', 'v', 'e', 'r', 't', 'return']","[0.9955712000373751, 1.1242825000081211, 1.6119703999720514, 1.7398451999761164, 2.0119284000247717, 2.4761270999442786, 2.899473200086504]",,,,,,,,,,4,001,A,2023_Jan_31_1546,student_TT_local,2021.1.4,59.72224378720723,
,None,None,None,None,None,None,None,None,None,None,piston,shrill,6.5,7.5,video&audio/caviar_TT_3X.mp4,video&audio/sentence3_TT_3X.mp4,caviar,pursue,None,,,,,,,,,,,,,,,,,,,,,,,,,,,,,,,,,,,,,,,,,,,0,12,12,20,,,,,,,,,,,,,,,,,,,,,,,,,,,,,,,,,,,,,,,,,,,,,,,3225.7478230998386,3232.2680438999087,None, shrill,"['d', 'backspace', 's', 'h', 'r', 'i', 'l', 'l', 'return']","[0.7979148000013083, 1.3812597999349236, 1.5655352999456227, 2.1254938000347465, 2.317136500030756, 2.4218297000043094, 3.126046799821779, 3.349159999983385, 4.054110799916089]",,,,,,,,,,4,001,A,2023_Jan_31_1546,student_TT_local,2021.1.4,59.72224378720723,
,None,None,None,None,None,None,None,None,None,None,falter,origin,6.5,7.5,video&audio/tandem_TT_3X.mp4,video&audio/sentence4_TT_3X.mp4,tandem,potent,None,,,,,,,,,,,,,,,,,,,,,,,,,,,,,,,,,,,,,,,,,,,0,13,13,15,,,,,,,,,,,,,,,,,,,,,,,,,,,,,,,,,,,,,,,,,,,,,,,3237.337307299953,3243.8452260999475,None, origin,"['o', 'r', 'i', 'g', 'i', 'n', 'return']","[0.880202499916777, 1.0650046998634934, 1.3207264000084251, 1.5763001998420805, 1.7844781999010593, 2.216597900027409, 2.728898299857974]",,,,,,,,,,4,001,A,2023_Jan_31_1546,student_TT_local,2021.1.4,59.72224378720723,
,None,None,None,None,None,None,None,None,None,None,botany,ethnic,6.5,7.5,video&audio/trench_TT_3X.mp4,video&audio/sentence4_TT_3X.mp4,trench,fodder,None,,,,,,,,,,,,,,,,,,,,,,,,,,,,,,,,,,,,,,,,,,,0,14,14,27,,,,,,,,,,,,,,,,,,,,,,,,,,,,,,,,,,,,,,,,,,,,,,,3247.6047674999572,3254.123207199853,None, ethnic,"['e', 't', 'h', 'i', 'backspace', 'n', 'i', 'c', 'return']","[0.7001704000867903, 0.9244099000934511, 1.148247200064361, 1.365158800035715, 2.116458100033924, 2.5970517999958247, 2.7882525001186877, 3.9561724001541734, 4.356762000126764]",,,,,,,,,,4,001,A,2023_Jan_31_1546,student_TT_local,2021.1.4,59.72224378720723,
,None,None,None,None,None,None,None,None,None,None,picket,gullet,6.5,7.5,video&audio/parish_TT_3X.mp4,video&audio/sentence5_TT_3X.mp4,parish,upkeep,None,,,,,,,,,,,,,,,,,,,,,,,,,,,,,,,,,,,,,,,,,,,0,15,15,28,,,,,,,,,,,,,,,,,,,,,,,,,,,,,,,,,,,,,,,,,,,,,,,3259.5203838997986,3266.038155599963,None, gullet,"['g', 'u', 'l', 'e', 'backspace', 'l', 'e', 't', 'return']","[0.8233133999165148, 1.0161979000549763, 1.582983999978751, 1.8629707000218332, 2.3351467999164015, 2.855940399924293, 3.1593303999397904, 3.35100349993445, 4.031260899966583]",,,,,,,,,,4,001,A,2023_Jan_31_1546,student_TT_local,2021.1.4,59.72224378720723,
,None,None,None,None,None,None,None,None,None,None,hippie,herbal,19.5,20.5,video&audio/hearth_touch_edited.mp4,video&audio/Sentence3_touch_edited.mp4,hearth,sonnet,None,,,,,,,,,,,,,,,,,,,,,,,,,,,,,,,,,,,,,,,,,,,0,16,16,14,,,,,,,,,,,,,,,,,,,,,,,,,,,,,,,,,,,,,,,,,,,,,,,3271.0784975998104,3290.6026554999407,None, herbal,"['h', 'e', 'r', 'b', 'a', 'l', 'return']","[0.7571461000479758, 0.9260919000953436, 1.238532500108704, 1.5572689999826252, 1.9019106000196189, 2.189225499983877, 2.7972742000129074]",,,,,,,,,,4,001,A,2023_Jan_31_1546,student_TT_local,2021.1.4,59.72224378720723,
,None,None,None,None,None,None,None,None,None,None,obsess,fusion,19.5,20.5,video&audio/zephyr_touch_edited.mp4,video&audio/Sentence5_touch_edited.mp4,zephyr,sherry,None,,,,,,,,,,,,,,,,,,,,,,,,,,,,,,,,,,,,,,,,,,,0,17,17,10,,,,,,,,,,,,,,,,,,,,,,,,,,,,,,,,,,,,,,,,,,,,,,,3294.4395839998033,3313.9583307998255,None, fusion,"['f', 'u', 's', 'i', 'o', 'n']","[0.4627448001410812, 0.783157000085339, 1.2479422001633793, 1.3588429000228643, 1.5670191999524832, 2.102869600057602]",,,,,,,,,,4,001,A,2023_Jan_31_1546,student_TT_local,2021.1.4,59.72224378720723,
,None,None,None,None,None,None,None,None,None,None,forage,allure,6.5,7.5,video&audio/campus_TT_3X.mp4,video&audio/sentence6_TT_3X.mp4,campus,legion,None,,,,,,,,,,,,,,,,,,,,,,,,,,,,,,,,,,,,,,,,,,,0,18,18,29,,,,,,,,,,,,,,,,,,,,,,,,,,,,,,,,,,,,,,,,,,,,,,,3317.6074021998793,3324.1149720998947,None, allure,"['a', 'l', 'l', 'u', 'r', 'e', 'return']","[0.5901615000329912, 0.854279600083828, 1.1426071000751108, 1.4710214000660926, 1.966268600197509, 2.4229577002115548, 2.8872317001223564]",,,,,,,,,,4,001,A,2023_Jan_31_1546,student_TT_local,2021.1.4,59.72224378720723,
,None,None,None,None,None,None,None,None,None,None,malady,revoke,19.5,20.5,video&audio/shrewd_touch_edited.mp4,video&audio/Sentence1_touch_edited.mp4,shrewd,mirage,None,,,,,,,,,,,,,,,,,,,,,,,,,,,,,,,,,,,,,,,,,,,0,19,19,6,,,,,,,,,,,,,,,,,,,,,,,,,,,,,,,,,,,,,,,,,,,,,,,3328.0416057999246,3347.5643203998916,None, revoke,"['r', 'e', 'v', 'o', 'k', 'e', 'return']","[0.8338943000417203, 1.1228440999984741, 1.4178055999800563, 1.8095609000883996, 2.1294056000187993, 2.457606100011617, 3.1375814001075923]",,,,,,,,,,4,001,A,2023_Jan_31_1546,student_TT_local,2021.1.4,59.72224378720723,
,None,None,None,None,None,None,None,None,None,None,confer,tamper,19.5,20.5,video&audio/innate_touch_edited.mp4,video&audio/Sentence1_touch_edited.mp4,innate,critic,None,,,,,,,,,,,,,,,,,,,,,,,,,,,,,,,,,,,,,,,,,,,0,20,20,12,,,,,,,,,,,,,,,,,,,,,,,,,,,,,,,,,,,,,,,,,,,,,,,3370.9415531000122,3390.448539200006,None, tamper,"['t', 'a', 'm', 'p', 'e', 'r', 'return']","[0.8024565000087023, 1.0665648002177477, 1.427176200086251, 2.0023054000921547, 2.298329300014302, 2.707112800097093, 3.0349171000998467]",,,,,,,,,,4,001,A,2023_Jan_31_1546,student_TT_local,2021.1.4,59.72224378720723,
,None,None,None,None,None,None,None,None,None,None,tariff,galley,19.5,20.5,video&audio/delude_touch_edited.mp4,video&audio/Sentence2_touch_edited.mp4,delude,strife,None,,,,,,,,,,,,,,,,,,,,,,,,,,,,,,,,,,,,,,,,,,,0,21,21,7,,,,,,,,,,,,,,,,,,,,,,,,,,,,,,,,,,,,,,,,,,,,,,,3394.511436499888,3414.0131136998534,None, galley,"['g', 'a', 'l', 'l', 'e', 'y', 'return']","[0.8734033000655472, 1.2022649000864476, 1.433669500052929, 1.7697233001235873, 2.057556100189686, 3.08975510019809, 3.6014663001988083]",,,,,,,,,,4,001,A,2023_Jan_31_1546,student_TT_local,2021.1.4,59.72224378720723,
,"This is Section 2.

In this section, your task will be the same as before - that is, to type the word you see on the screen after the typing prompt. However, rather than just seeing the word before typing, you will also see a video of someone typing the same word you will need to type at various speeds. 

Press 'enter/return' to go to the next page.","This is Section 4. 

In this section, your task will be the same as before - that is, to type the word you see on the screen after the typing prompt. You will see a video again, like in Section 2, only this time, the video will show someone typing different words to what you must type at various speeds. 

Press 'enter/return' to go to the next page.",video&audio/Example_AOMI_layout.png,1.6,0.6,afford,19.5,20.5,video&audio/afford_touch_edited.mp4,video&audio/amount_touch_edited.mp4,matrix,breach,19.5,20.5,video&audio/hinder_touch_edited.mp4,video&audio/Sentence1_touch_edited.mp4,hinder,vanity,1 = AOMIspec,,,,,,,,,,,,,,,,,,,,,,,,,,,,,,,,,,,,,,,,,,,0,22,22,0,,,,,,,,,,,,,,,,,,,,,,,,,,,,,,,,,,,,,,,,,,,,,,,3418.6636637998745,3438.180414999835,None, breach,"['b', 'r', 'e', 'a', 'c', 'h', 'return']","[0.8534673999529332, 1.1735125998966396, 1.5819369999226183, 2.1016081999987364, 2.8774215998128057, 3.086428399896249, 3.685419699875638]",,,,,,,,,,4,001,A,2023_Jan_31_1546,student_TT_local,2021.1.4,59.72224378720723,
,"Remember to type as QUICKLY and ACCURATELY as possible after the 'get ready' prompt.

Ask the experimenter any questions now. Please put on the headphones.

You will get one practice trial. Press 'enter/return' when you are ready to start the practice.","Remember to type as QUICKLY and ACCURATELY as you can after the 'get ready' prompt.

Ask the experimenter any questions now. Please put on the headphones.

You will get one practice trial. Press 'enter/return' when you are ready to start the practice.",video&audio/Example_AOMI_total.png,1.8,0.7,None,None,None,None,None,frugal,ghetto,19.5,20.5,video&audio/oppose_touch_edited.mp4,video&audio/Sentence3_touch_edited.mp4,oppose,jargon,None,,,,,,,,,,,,,,,,,,,,,,,,,,,,,,,,,,,,,,,,,,,0,23,23,2,,,,,,,,,,,,,,,,,,,,,,,,,,,,,,,,,,,,,,,,,,,,,,,3442.9193084998988,3462.4285596997943,None, ghetto,"['g', 'e', 'backspace', 'h', 'e', 't', 't', 'o', 'return']","[0.8677303001750261, 1.0353963000234216, 1.7471258000005037, 2.4668722001370043, 2.8354530001524836, 3.0594477001577616, 3.235475700115785, 3.898851400008425, 4.443135300185531]",,,,,,,,,,4,001,A,2023_Jan_31_1546,student_TT_local,2021.1.4,59.72224378720723,
,None,None,None,None,None,None,None,None,None,None,covert,defame,19.5,20.5,video&audio/patent_touch_edited.mp4,video&audio/Sentence6_touch_edited.mp4,patent,binder,None,,,,,,,,,,,,,,,,,,,,,,,,,,,,,,,,,,,,,,,,,,,0,24,24,11,,,,,,,,,,,,,,,,,,,,,,,,,,,,,,,,,,,,,,,,,,,,,,,3467.9283338999376,3487.4437245000154,None, defame,"['d', 'e', 'f', 'a', 'm', 'e', 'return']","[0.8305360001977533, 1.1185103000607342, 1.5187689000740647, 1.7352690000552684, 2.6549091001506895, 2.990923000033945, 3.390543800080195]",,,,,,,,,,4,001,A,2023_Jan_31_1546,student_TT_local,2021.1.4,59.72224378720723,
,None,None,None,None,None,None,None,None,None,None,pulpit,mystic,19.5,20.5,video&audio/oblige_touch_edited.mp4,video&audio/Sentence4_touch_edited.mp4,oblige,infirm,None,,,,,,,,,,,,,,,,,,,,,,,,,,,,,,,,,,,,,,,,,,,0,25,25,3,,,,,,,,,,,,,,,,,,,,,,,,,,,,,,,,,,,,,,,,,,,,,,,3491.8772706999443,3511.3922509998083,None, mystic,"['m', 'y', 's', 't', 'i', 'f', 'backspace', 'c', 'return']","[0.8758489999454468, 1.2991694000083953, 1.6199369998648763, 2.595536199864, 2.915572499856353, 3.1391779999248683, 3.803711799904704, 4.083193300059065, 4.211247300030664]",,,,,,,,,,4,001,A,2023_Jan_31_1546,student_TT_local,2021.1.4,59.72224378720723,
,None,None,None,None,None,None,None,None,None,None,plasma,nettle,6.5,7.5,video&audio/jailer_TT_3X.mp4,video&audio/sentence5_TT_3X.mp4,jailer,deduct,None,,,,,,,,,,,,,,,,,,,,,,,,,,,,,,,,,,,,,,,,,,,0,26,26,16,,,,,,,,,,,,,,,,,,,,,,,,,,,,,,,,,,,,,,,,,,,,,,,3516.6313821999356,3523.1392915998586,None, nettle,"['n', 'e', 't', 't', 'l', 'e', 'return']","[0.696366999996826, 1.0240303999744356, 1.3446194999851286, 1.5358490999788046, 2.3926562999840826, 2.655918600037694, 3.0158178999554366]",,,,,,,,,,4,001,A,2023_Jan_31_1546,student_TT_local,2021.1.4,59.72224378720723,
,None,None,None,None,None,None,None,None,None,None,debtor,uphold,6.5,7.5,video&audio/output_TT_3X.mp4,video&audio/sentence1_TT_3X.mp4,output,convoy,None,,,,,,,,,,,,,,,,,,,,,,,,,,,,,,,,,,,,,,,,,,,0,27,27,18,,,,,,,,,,,,,,,,,,,,,,,,,,,,,,,,,,,,,,,,,,,,,,,3527.1975320999045,3533.705209299922,None, uphold,"['u', 'p', 'h', 'o', 'l', 'd', 'return']","[0.7288116000127047, 1.5763214000035077, 1.8323419999796897, 2.1605653997976333, 2.5445469999685884, 3.152145199943334, 3.5045588999055326]",,,,,,,,,,4,001,A,2023_Jan_31_1546,student_TT_local,2021.1.4,59.72224378720723,
,None,None,None,None,None,None,None,None,None,None,belfry,linear,6.5,7.5,video&audio/girdle_TT_3X.mp4,video&audio/sentence6_TT_3X.mp4,girdle,manure,None,,,,,,,,,,,,,,,,,,,,,,,,,,,,,,,,,,,,,,,,,,,0,28,28,23,,,,,,,,,,,,,,,,,,,,,,,,,,,,,,,,,,,,,,,,,,,,,,,3538.2409365999047,3544.7411823999137,None, linear,"['l', 'i', 'n', 'e', 'r', 'backspace', 'a', 'r', 'return']","[0.8153419999871403, 1.1116647999733686, 1.3589441000949591, 1.5272389000747353, 1.926794399973005, 2.447114000096917, 2.638735700165853, 3.071153199998662, 3.815845600096509]",,,,,,,,,,4,001,A,2023_Jan_31_1546,student_TT_local,2021.1.4,59.72224378720723,
,None,None,None,None,None,None,None,None,None,None,jackal,shroud,19.5,20.5,video&audio/hamlet_touch_edited.mp4,video&audio/Sentence4_touch_edited.mp4,hamlet,parole,None,,,,,,,,,,,,,,,,,,,,,,,,,,,,,,,,,,,,,,,,,,,0,29,29,9,,,,,,,,,,,,,,,,,,,,,,,,,,,,,,,,,,,,,,,,,,,,,,,3549.598510499811,3569.113453199854,None, shroud,"['s', 'h', 'r', 'o', 'u', 'd', 'return']","[0.5702489998657256, 0.6260561998933554, 1.1619766999501735, 1.4985751998610795, 1.770851399982348, 2.6182657999452204, 3.122381999855861]",,,,,,,,,,4,001,A,2023_Jan_31_1546,student_TT_local,2021.1.4,59.72224378720723,
,,,,,,,,,,,,,,,,,,,,typingRatingScale.png,"How would you rate your typing performance in the previous section?

Press a number on your keyboard according to the rating scale below to give your answer. Your first answer will be accepted.",,,,,,,,,,,,,,,,,,,,,,,,,,,,,,,,,,,,,,,,,,,,,0,0,0,0,,,,,,,,,,,,,,,,,,,,,,,,,,,,,,,,,,,,,,,,,,,,,,,,,['2'],[7.69228499988094],,,,,,,,4,001,A,2023_Jan_31_1546,student_TT_local,2021.1.4,59.72224378720723,
,,,,,,,,,,,,,,,,,,,,imageryCheckScale.png,"In the previous section did you imagine yourself typing?

Press a number on your keyboard according to the rating scale below to give your answer. Your first answer will be accepted.",,,,,,,,,,,,,,,,,,,,,,,,,,,,,,,,,,,,,,,,,,,,,0,1,1,1,,,,,,,,,,,,,,,,,,,,,,,,,,,,,,,,,,,,,,,,,,,,,,,,,['1'],[6.148278799839318],,,,,,,,4,001,A,2023_Jan_31_1546,student_TT_local,2021.1.4,59.72224378720723,
,None,None,None,None,None,None,None,None,None,None,confer,tamper,19.5,20.5,video&audio/innate_touch_edited.mp4,video&audio/Sentence1_touch_edited.mp4,innate,critic,None,,,,,,,,,,,,,,,,,,,,,,,,,,,,,,,,,,,,,,,,,,,,,,,,,,,,,,,,,,,0,0,0,12,,,,,,,,,,,,,,,,None,"['n', 'backspace', 'b', 'u', 't', 't', 'e', 'r', 'return']","[1.0440740000922233, 1.7636134000495076, 2.1956756999716163, 2.4603886001277715, 3.131742099998519, 3.363877800060436, 3.5884358999319375, 4.051608700072393, 4.315580900060013]",,,,,,,,,,,,,,,,,,,,,None,None, critic,"['c', 'r', 'i', 't', 'i', 'c', 'return']","[1.147847400046885, 1.7397879001218826, 1.9313161000609398, 2.547576399985701, 3.043478999985382, 3.4438795000314713, 3.8359197000972927]",,,4,001,A,2023_Jan_31_1546,student_TT_local,2021.1.4,59.72224378720723,
,None,None,None,None,None,None,None,None,None,None,solemn,ration,19.5,20.5,video&audio/befall_touch_edited.mp4,video&audio/Sentence3_touch_edited.mp4,befall,goblet,None,,,,,,,,,,,,,,,,,,,,,,,,,,,,,,,,,,,,,,,,,,,,,,,,,,,,,,,,,,,0,1,1,8,,,,,,,,,,,,,,,,None,,,,,,,,,,,,,,,,,,,,,,,,None, goblet,"['g', 'l', 'backspace', 'o', 'b', 'l', 'e', 't', 'return']","[1.1799993999302387, 1.515914399875328, 2.1078693999443203, 2.6122039000038058, 3.0200320000294596, 3.2921827000100166, 3.499837900046259, 3.659808199852705, 4.1402362999506295]",,,4,001,A,2023_Jan_31_1546,student_TT_local,2021.1.4,59.72224378720723,
,None,None,None,None,None,None,None,None,None,None,plasma,nettle,6.5,7.5,video&audio/jailer_TT_3X.mp4,video&audio/sentence5_TT_3X.mp4,jailer,deduct,None,,,,,,,,,,,,,,,,,,,,,,,,,,,,,,,,,,,,,,,,,,,,,,,,,,,,,,,,,,,0,2,2,16,,,,,,,,,,,,,,,,None,,,,,,,,,,,,,,,,,,,,,,,,None, deduct,"['d', 'e', 'u', 'backspace', 'd', 'u', 't', 'c', 'backspace', 'backspace', 'c', 't', 'return']","[0.8522572999354452, 1.2194739000406116, 1.4192520999349654, 1.82713310001418, 1.923238799907267, 2.4432101999409497, 3.4355834999587387, 3.5232196000870317, 3.963056500069797, 4.107327700126916, 4.403287600027397, 4.684043999994174, 5.187540099956095]",,,4,001,A,2023_Jan_31_1546,student_TT_local,2021.1.4,59.72224378720723,
,None,None,None,None,None,None,None,None,None,None,malady,revoke,19.5,20.5,video&audio/shrewd_touch_edited.mp4,video&audio/Sentence1_touch_edited.mp4,shrewd,mirage,None,,,,,,,,,,,,,,,,,,,,,,,,,,,,,,,,,,,,,,,,,,,,,,,,,,,,,,,,,,,0,3,3,6,,,,,,,,,,,,,,,,None,,,,,,,,,,,,,,,,,,,,,,,,None, mirage,"['m', 'i', 'r', 'a', 'g', 'e', 'return']","[1.0638588999863714, 1.3282778998836875, 2.4083767000120133, 2.6718424998689443, 2.7758996000047773, 3.1923471998889, 3.728235099930316]",,,4,001,A,2023_Jan_31_1546,student_TT_local,2021.1.4,59.72224378720723,
,None,None,None,None,None,None,None,None,None,None,subtle,mucous,6.5,7.5,video&audio/fungal_TT_3X.mp4,video&audio/sentence5_TT_3X.mp4,fungal,brazen,None,,,,,,,,,,,,,,,,,,,,,,,,,,,,,,,,,,,,,,,,,,,,,,,,,,,,,,,,,,,0,4,4,22,,,,,,,,,,,,,,,,None,,,,,,,,,,,,,,,,,,,,,,,,None, brazen,"['b', 'r', 'a', 'z', 'e', 'j', 'backspace', 'n', 'return']","[1.4636397000867873, 1.6402243999764323, 1.9120007001329213, 2.375676500145346, 2.9207566999830306, 3.304243100108579, 3.935925400117412, 4.311803700169548, 4.736720400163904]",,,4,001,A,2023_Jan_31_1546,student_TT_local,2021.1.4,59.72224378720723,
,None,None,None,None,None,None,None,None,None,None,devise,warble,6.5,7.5,video&audio/mangle_TT_3X.mp4,video&audio/sentence1_TT_3X.mp4,mangle,satire,None,,,,,,,,,,,,,,,,,,,,,,,,,,,,,,,,,,,,,,,,,,,,,,,,,,,,,,,,,,,0,5,5,24,,,,,,,,,,,,,,,,None,,,,,,,,,,,,,,,,,,,,,,,,None, satire,"['s', 'a', 't', 'i', 'r', 'e', 'return']","[1.2168773000594229, 1.5284297000616789, 2.328586099902168, 2.512788600055501, 3.0009502999018878, 3.7932132000569254, 4.496999500086531]",,,4,001,A,2023_Jan_31_1546,student_TT_local,2021.1.4,59.72224378720723,
,"This is Section 2.

In this section, your task will be the same as before - that is, to type the word you see on the screen after the typing prompt. However, rather than just seeing the word before typing, you will also see a video of someone typing the same word you will need to type at various speeds. 

Press 'enter/return' to go to the next page.","This is Section 4. 

In this section, your task will be the same as before - that is, to type the word you see on the screen after the typing prompt. You will see a video again, like in Section 2, only this time, the video will show someone typing different words to what you must type at various speeds. 

Press 'enter/return' to go to the next page.",video&audio/Example_AOMI_layout.png,1.6,0.6,afford,19.5,20.5,video&audio/afford_touch_edited.mp4,video&audio/amount_touch_edited.mp4,matrix,breach,19.5,20.5,video&audio/hinder_touch_edited.mp4,video&audio/Sentence1_touch_edited.mp4,hinder,vanity,1 = AOMIspec,,,,,,,,,,,,,,,,,,,,,,,,,,,,,,,,,,,,,,,,,,,,,,,,,,,,,,,,,,,0,6,6,0,,,,,,,,,,,,,,,,None,,,,,,,,,,,,,,,,,,,,,,,,None, vanity,"['v', 'space', 'a', 'backspace', 'backspace', 'a', 'n', 'i', 't', 'y', 'return']","[0.70689080003649, 0.7310428000055254, 1.0748940000776201, 1.834634100086987, 1.9796287000644952, 2.0989666001405567, 2.73132020002231, 2.9950332001317292, 3.3948058001697063, 3.7548092000652105, 4.36287930002436]",,,4,001,A,2023_Jan_31_1546,student_TT_local,2021.1.4,59.72224378720723,
,None,None,None,None,None,None,None,None,None,None,falter,origin,6.5,7.5,video&audio/tandem_TT_3X.mp4,video&audio/sentence4_TT_3X.mp4,tandem,potent,None,,,,,,,,,,,,,,,,,,,,,,,,,,,,,,,,,,,,,,,,,,,,,,,,,,,,,,,,,,,0,7,7,15,,,,,,,,,,,,,,,,None,,,,,,,,,,,,,,,,,,,,,,,,None, potent,"['p', 'o', 't', 'e', 'n', 't', 'return']","[1.2499728999100626, 1.4824320999905467, 1.9458729999605566, 2.1058993998449296, 3.0820367999840528, 3.26587409991771, 3.6507375999353826]",,,4,001,A,2023_Jan_31_1546,student_TT_local,2021.1.4,59.72224378720723,
,"Remember to type as QUICKLY and ACCURATELY as possible after the 'get ready' prompt.

Ask the experimenter any questions now. Please put on the headphones.

You will get one practice trial. Press 'enter/return' when you are ready to start the practice.","Remember to type as QUICKLY and ACCURATELY as you can after the 'get ready' prompt.

Ask the experimenter any questions now. Please put on the headphones.

You will get one practice trial. Press 'enter/return' when you are ready to start the practice.",video&audio/Example_AOMI_total.png,1.8,0.7,None,None,None,None,None,frugal,ghetto,19.5,20.5,video&audio/oppose_touch_edited.mp4,video&audio/Sentence3_touch_edited.mp4,oppose,jargon,None,,,,,,,,,,,,,,,,,,,,,,,,,,,,,,,,,,,,,,,,,,,,,,,,,,,,,,,,,,,0,8,8,2,,,,,,,,,,,,,,,,None,,,,,,,,,,,,,,,,,,,,,,,,None, jargon,"['j', 'a', 'e', 'backspace', 'r', 'g', 'o', 'n', 'return']","[0.9570053999777883, 1.3262230998370796, 1.740805899957195, 2.5332352998666465, 2.685793299926445, 3.1968295997940004, 3.933750999858603, 4.148891799850389, 4.52494139992632]",,,4,001,A,2023_Jan_31_1546,student_TT_local,2021.1.4,59.72224378720723,
,None,None,None,None,None,None,None,None,None,None,picket,gullet,6.5,7.5,video&audio/parish_TT_3X.mp4,video&audio/sentence5_TT_3X.mp4,parish,upkeep,None,,,,,,,,,,,,,,,,,,,,,,,,,,,,,,,,,,,,,,,,,,,,,,,,,,,,,,,,,,,0,9,9,28,,,,,,,,,,,,,,,,None,,,,,,,,,,,,,,,,,,,,,,,,None, upkeep,"['u', 'p', 'e', 'backspace', 'k', 'e', 'e', 'p', 'return']","[1.0263260998763144, 1.4738074999768287, 1.7618834997992963, 2.2258017999120057, 2.609179199906066, 2.7779299998655915, 2.9615878998301923, 3.0413998998701572, 3.3781447999645025]",,,4,001,A,2023_Jan_31_1546,student_TT_local,2021.1.4,59.72224378720723,
,None,None,None,None,None,None,None,None,None,None,cervix,export,6.5,7.5,video&audio/cobble_TT_3X.mp4,video&audio/sentence2_TT_3X.mp4,cobble,murmur,None,,,,,,,,,,,,,,,,,,,,,,,,,,,,,,,,,,,,,,,,,,,,,,,,,,,,,,,,,,,0,10,10,19,,,,,,,,,,,,,,,,None,,,,,,,,,,,,,,,,,,,,,,,,None, murmur,"['m', 'u', 'r', 'm', 'u', 'r', 'return']","[0.7640889000613242, 1.1246086000464857, 1.3321155000012368, 1.4760700000915676, 1.9641470001079142, 2.1318415000569075, 2.571886399993673]",,,4,001,A,2023_Jan_31_1546,student_TT_local,2021.1.4,59.72224378720723,
,None,None,None,None,None,None,None,None,None,None,botany,ethnic,6.5,7.5,video&audio/trench_TT_3X.mp4,video&audio/sentence4_TT_3X.mp4,trench,fodder,None,,,,,,,,,,,,,,,,,,,,,,,,,,,,,,,,,,,,,,,,,,,,,,,,,,,,,,,,,,,0,11,11,27,,,,,,,,,,,,,,,,None,,,,,,,,,,,,,,,,,,,,,,,,None, fodder,"['f', 'o', 'd', 'd', 'e', 'r', 'return']","[0.7025164000224322, 0.7825778999831527, 1.6787085998803377, 1.8464091999921948, 2.198751199990511, 2.6389166000299156, 3.0462016998790205]",,,4,001,A,2023_Jan_31_1546,student_TT_local,2021.1.4,59.72224378720723,
,None,None,None,None,None,None,None,None,None,None,covert,defame,19.5,20.5,video&audio/patent_touch_edited.mp4,video&audio/Sentence6_touch_edited.mp4,patent,binder,None,,,,,,,,,,,,,,,,,,,,,,,,,,,,,,,,,,,,,,,,,,,,,,,,,,,,,,,,,,,0,12,12,11,,,,,,,,,,,,,,,,None,,,,,,,,,,,,,,,,,,,,,,,,None, binder,"['b', 'i', 'n', 'd', 'e', 'r', 'return']","[0.6688018999993801, 0.9973589999135584, 1.2299076998606324, 1.7099488999228925, 2.0770232998766005, 2.3968279999680817, 2.77322329999879]",,,4,001,A,2023_Jan_31_1546,student_TT_local,2021.1.4,59.72224378720723,
,None,None,None,None,None,None,None,None,None,None,kipper,divert,6.5,7.5,video&audio/meddle_TT_3X.mp4,video&audio/sentence2_TT_3X.mp4,meddle,musket,None,,,,,,,,,,,,,,,,,,,,,,,,,,,,,,,,,,,,,,,,,,,,,,,,,,,,,,,,,,,0,13,13,25,,,,,,,,,,,,,,,,None,,,,,,,,,,,,,,,,,,,,,,,,None, musket,"['m', 'u', 's', 'k', 'e', 't', 'return']","[1.1978894001804292, 1.5341321001760662, 1.9426580001600087, 2.4299049000255764, 2.7264422001317143, 2.862362400162965, 3.4701191000640392]",,,4,001,A,2023_Jan_31_1546,student_TT_local,2021.1.4,59.72224378720723,
,None,None,None,None,None,None,None,None,None,None,cortex,mussel,6.5,7.5,video&audio/induce_TT_3X.mp4,video&audio/sentence4_TT_3X.mp4,induce,savant,None,,,,,,,,,,,,,,,,,,,,,,,,,,,,,,,,,,,,,,,,,,,,,,,,,,,,,,,,,,,0,14,14,21,,,,,,,,,,,,,,,,None,,,,,,,,,,,,,,,,,,,,,,,,None, savant,"['s', 'a', 'v', 'a', 'n', 't', 'return']","[0.5568413001019508, 0.9092969999182969, 1.5650977999903262, 2.2127143999096006, 3.0296354999300092, 3.3332052999176085, 3.7015418999362737]",,,4,001,A,2023_Jan_31_1546,student_TT_local,2021.1.4,59.72224378720723,
,None,None,None,None,None,None,None,None,None,None,parcel,entail,19.5,20.5,video&audio/primal_touch_edited.mp4,video&audio/Sentence5_touch_edited.mp4,primal,novice,None,,,,,,,,,,,,,,,,,,,,,,,,,,,,,,,,,,,,,,,,,,,,,,,,,,,,,,,,,,,0,15,15,4,,,,,,,,,,,,,,,,None,,,,,,,,,,,,,,,,,,,,,,,,None, novice,"['n', 'o', 'v', 'i', 'c', 'e', 'return']","[0.6290251000318676, 0.9404744000639766, 1.3328448000829667, 1.4607903000432998, 1.8450249000452459, 2.405358500080183, 2.588884799974039]",,,4,001,A,2023_Jan_31_1546,student_TT_local,2021.1.4,59.72224378720723,
,None,None,None,None,None,None,None,None,None,None,piston,shrill,6.5,7.5,video&audio/caviar_TT_3X.mp4,video&audio/sentence3_TT_3X.mp4,caviar,pursue,None,,,,,,,,,,,,,,,,,,,,,,,,,,,,,,,,,,,,,,,,,,,,,,,,,,,,,,,,,,,0,16,16,20,,,,,,,,,,,,,,,,None,,,,,,,,,,,,,,,,,,,,,,,,None, pursue,"['p', 'u', 'r', 's', 'u', 'e', 'return']","[0.7587001000065356, 1.1582274998072535, 1.3502167998813093, 1.6470836999360472, 2.3265483998693526, 2.4790380999911577, 2.8625000999309123]",,,4,001,A,2023_Jan_31_1546,student_TT_local,2021.1.4,59.72224378720723,
,None,None,None,None,None,None,None,None,None,None,ritual,portal,6.5,7.5,video&audio/clergy_TT_3X.mp4,video&audio/sentence6_TT_3X.mp4,clergy,coerce,None,,,,,,,,,,,,,,,,,,,,,,,,,,,,,,,,,,,,,,,,,,,,,,,,,,,,,,,,,,,0,17,17,17,,,,,,,,,,,,,,,,None,,,,,,,,,,,,,,,,,,,,,,,,None, coerce,"['c', 'o', 'r', 'backspace', 'e', 'r', 'c', 'e', 'return']","[0.7864216000307351, 1.1056498000398278, 1.2657451999839395, 1.8337824998889118, 1.9455844999756664, 2.2980215998832136, 3.0176015999168158, 3.2658245000056922, 3.5778167999815196]",,,4,001,A,2023_Jan_31_1546,student_TT_local,2021.1.4,59.72224378720723,
,None,None,None,None,None,None,None,None,None,None,pulpit,mystic,19.5,20.5,video&audio/oblige_touch_edited.mp4,video&audio/Sentence4_touch_edited.mp4,oblige,infirm,None,,,,,,,,,,,,,,,,,,,,,,,,,,,,,,,,,,,,,,,,,,,,,,,,,,,,,,,,,,,0,18,18,3,,,,,,,,,,,,,,,,None,,,,,,,,,,,,,,,,,,,,,,,,None, infirm,"['i', 'n', 'f', 'i', 'r', 'm', 'return']","[0.8153166000265628, 1.1756827000062913, 1.5833791999612004, 1.743260399904102, 1.992258899845183, 2.1513018999248743, 2.5995912000071257]",,,4,001,A,2023_Jan_31_1546,student_TT_local,2021.1.4,59.72224378720723,
,None,None,None,None,None,None,None,None,None,None,forage,allure,6.5,7.5,video&audio/campus_TT_3X.mp4,video&audio/sentence6_TT_3X.mp4,campus,legion,None,,,,,,,,,,,,,,,,,,,,,,,,,,,,,,,,,,,,,,,,,,,,,,,,,,,,,,,,,,,0,19,19,29,,,,,,,,,,,,,,,,None,,,,,,,,,,,,,,,,,,,,,,,,None, legion,"['l', 'e', 'g', 'o', 'n', 'return']","[0.6631342000328004, 0.8789428998716176, 1.9671791999135166, 2.2399607999250293, 2.591144399950281, 3.231120300013572]",,,4,001,A,2023_Jan_31_1546,student_TT_local,2021.1.4,59.72224378720723,
,None,None,None,None,None,None,None,None,None,None,hippie,herbal,19.5,20.5,video&audio/hearth_touch_edited.mp4,video&audio/Sentence3_touch_edited.mp4,hearth,sonnet,None,,,,,,,,,,,,,,,,,,,,,,,,,,,,,,,,,,,,,,,,,,,,,,,,,,,,,,,,,,,0,20,20,14,,,,,,,,,,,,,,,,None,,,,,,,,,,,,,,,,,,,,,,,,None, sonnet,"['s', 'o', 'n', 'n', 'e', 't', 'return']","[0.8961792998015881, 1.7521614998113364, 2.0881637998390943, 2.4086516997776926, 2.6405838998034596, 3.1045754000078887, 3.4972360997926444]",,,4,001,A,2023_Jan_31_1546,student_TT_local,2021.1.4,59.72224378720723,
,"While you watch the video, imagine yourself typing the word on the screen, like how you did in the imagery practice. While you watch the video and imagine this, rest your hands on your keyboard but DO NOT type until AFTER you see the typing prompt.

Press 'enter/return' to go to the next page.","While watching the video, imagine yourself typing the word on the screen, like how you did in the imagery practice. While you watch the video and imagine this, rest your hands on your keyboard but DO NOT type until AFTER you see the typing prompt.

Press 'enter/return' to go to the next page.",video&audio/Example_AOMI_imagine.png,1.6,1,butter,6.5,7.5,video&audio/butter_TT_3X.mp4,video&audio/amount_TT_3X.mp4,ascend,eatery,19.5,20.5,video&audio/metric_touch_edited.mp4,video&audio/Sentence2_touch_edited.mp4,metric,plight,2 = AOMIgen,,,,,,,,,,,,,,,,,,,,,,,,,,,,,,,,,,,,,,,,,,,,,,,,,,,,,,,,,,,0,21,21,1,,,,,,,,,,,,,,,,None,,,,,,,,,,,,,,,,,,,,,,,,None, plight,"['p', 'l', 'i', 'g', 'h', 't', 'return']","[0.7149952999316156, 1.138940299861133, 2.067488099914044, 2.563225199934095, 2.730861899908632, 3.8110136999748647, 4.131083499873057]",,,4,001,A,2023_Jan_31_1546,student_TT_local,2021.1.4,59.72224378720723,
,None,None,None,None,None,None,None,None,None,None,jackal,shroud,19.5,20.5,video&audio/hamlet_touch_edited.mp4,video&audio/Sentence4_touch_edited.mp4,hamlet,parole,None,,,,,,,,,,,,,,,,,,,,,,,,,,,,,,,,,,,,,,,,,,,,,,,,,,,,,,,,,,,0,22,22,9,,,,,,,,,,,,,,,,None,,,,,,,,,,,,,,,,,,,,,,,,None, parole,"['p', 'a', 'r', 'o', 'l', 'e', 'return']","[0.7078451002016664, 0.8762248000130057, 1.3959190000314265, 1.9154189000837505, 2.3237316000740975, 2.6595235001295805, 2.97206460009329]",,,4,001,A,2023_Jan_31_1546,student_TT_local,2021.1.4,59.72224378720723,
,None,None,None,None,None,None,None,None,None,None,subdue,matron,6.5,7.5,video&audio/feudal_TT_3X.mp4,video&audio/sentence3_TT_3X.mp4,feudal,impose,None,,,,,,,,,,,,,,,,,,,,,,,,,,,,,,,,,,,,,,,,,,,,,,,,,,,,,,,,,,,0,23,23,26,,,,,,,,,,,,,,,,None,,,,,,,,,,,,,,,,,,,,,,,,None, impose,"['i', 'm', 'p', 'o', 's', 'e', 'return']","[0.8260576999746263, 1.081625800114125, 1.4575104999821633, 1.7055510999634862, 1.8896332001313567, 2.3455127999186516, 2.4094205999281257]",,,4,001,A,2023_Jan_31_1546,student_TT_local,2021.1.4,59.72224378720723,
,None,None,None,None,None,None,None,None,None,None,belfry,linear,6.5,7.5,video&audio/girdle_TT_3X.mp4,video&audio/sentence6_TT_3X.mp4,girdle,manure,None,,,,,,,,,,,,,,,,,,,,,,,,,,,,,,,,,,,,,,,,,,,,,,,,,,,,,,,,,,,0,24,24,23,,,,,,,,,,,,,,,,None,,,,,,,,,,,,,,,,,,,,,,,,None, manur,"['m', 'a', 'n', 'u', 'r', 'return']","[0.8473616999108344, 0.9901568999048322, 1.087162199895829, 1.727366799954325, 1.9741167000029236, 2.3741240999661386]",,,4,001,A,2023_Jan_31_1546,student_TT_local,2021.1.4,59.72224378720723,
,None,None,None,None,None,None,None,None,None,None,virile,apathy,19.5,20.5,video&audio/joiner_touch_edited.mp4,video&audio/Sentence6_touch_edited.mp4,joiner,revolt,None,,,,,,,,,,,,,,,,,,,,,,,,,,,,,,,,,,,,,,,,,,,,,,,,,,,,,,,,,,,0,25,25,5,,,,,,,,,,,,,,,,None,,,,,,,,,,,,,,,,,,,,,,,,None, revolt,"['r', 'e', 'v', 'o', 'l', 't', 'return']","[0.6462204998824745, 0.8706374999601394, 1.4299945998936892, 1.5904789997730404, 1.790117499884218, 2.422010999871418, 2.9822556998115033]",,,4,001,A,2023_Jan_31_1546,student_TT_local,2021.1.4,59.72224378720723,
,None,None,None,None,None,None,None,None,None,None,debtor,uphold,6.5,7.5,video&audio/output_TT_3X.mp4,video&audio/sentence1_TT_3X.mp4,output,convoy,None,,,,,,,,,,,,,,,,,,,,,,,,,,,,,,,,,,,,,,,,,,,,,,,,,,,,,,,,,,,0,26,26,18,,,,,,,,,,,,,,,,None,,,,,,,,,,,,,,,,,,,,,,,,None, convoy,"['c', 'o', 'n', 'v', 'o', 'y', 'return']","[0.4281375000718981, 0.7565117999911308, 1.605457300087437, 2.108427200000733, 2.2360632000491023, 2.660371000180021, 3.197358899982646]",,,4,001,A,2023_Jan_31_1546,student_TT_local,2021.1.4,59.72224378720723,
,None,None,None,None,None,None,None,None,None,None,obsess,fusion,19.5,20.5,video&audio/zephyr_touch_edited.mp4,video&audio/Sentence5_touch_edited.mp4,zephyr,sherry,None,,,,,,,,,,,,,,,,,,,,,,,,,,,,,,,,,,,,,,,,,,,,,,,,,,,,,,,,,,,0,27,27,10,,,,,,,,,,,,,,,,None,,,,,,,,,,,,,,,,,,,,,,,,None, sherry,"['s', 'h', 'e', 'r', 'r', 'y', 'return']","[0.5539526999928057, 0.826151299988851, 1.0817241000477225, 1.4416201000567526, 1.7702874999959022, 2.1867396999150515, 2.745579000096768]",,,4,001,A,2023_Jan_31_1546,student_TT_local,2021.1.4,59.72224378720723,
,None,None,None,None,None,None,None,None,None,None,neural,ordain,19.5,20.5,video&audio/septic_touch_edited.mp4,video&audio/Sentence2_touch_edited.mp4,septic,quarry,None,,,,,,,,,,,,,,,,,,,,,,,,,,,,,,,,,,,,,,,,,,,,,,,,,,,,,,,,,,,0,28,28,13,,,,,,,,,,,,,,,,None,,,,,,,,,,,,,,,,,,,,,,,,None, quarry,"['q', 'u', 'a', 'r', 'r', 'y', 'return']","[0.9886451999191195, 1.2210938998032361, 1.4777365999761969, 2.116911399876699, 2.3495560998562723, 2.5725604998879135, 3.164729399839416]",,,4,001,A,2023_Jan_31_1546,student_TT_local,2021.1.4,59.72224378720723,
,None,None,None,None,None,None,None,None,None,None,tariff,galley,19.5,20.5,video&audio/delude_touch_edited.mp4,video&audio/Sentence2_touch_edited.mp4,delude,strife,None,,,,,,,,,,,,,,,,,,,,,,,,,,,,,,,,,,,,,,,,,,,,,,,,,,,,,,,,,,,0,29,29,7,,,,,,,,,,,,,,,,None,,,,,,,,,,,,,,,,,,,,,,,,None, strife,"['s', 't', 'r', 'i', 'f', 'e', 'return']","[0.5358070998918265, 1.2324771999847144, 1.4878390999510884, 1.6159280000720173, 1.9037587998900563, 2.3044926000293344, 2.5840131998993456]",,,4,001,A,2023_Jan_31_1546,student_TT_local,2021.1.4,59.72224378720723,
,,,,,,,,,,,,,,,,,,,,typingRatingScale.png,"How would you rate your typing performance in the previous section?

Press a number on your keyboard according to the rating scale below to give your answer. Your first answer will be accepted.",,,,,,,,,,,,,,,,,,,,,,,,,,,,,,,,,,,,,,,,,,,,,,,,,,,,,,,,,,,,,0,0,0,0,,,,,,,,,,,,,,,,,,,,,,,,,,,,,,,,,,,,,,,,['3'],[5.462600499857217],4,001,A,2023_Jan_31_1546,student_TT_local,2021.1.4,59.72224378720723,
,,,,,,,,,,,,,,,,,,,,visualImageryScale.png,"While imagining yourself typing, how clear was your visual image?

Press a number on your keyboard according to the rating scale below to give your answer. Your first answer will be accepted.",,,,,,,,,,,,,,,,,,,,,,,,,,,,,,,,,,,,,,,,,,,,,,,,,,,,,,,,,,,,,0,1,1,1,,,,,,,,,,,,,,,,,,,,,,,,,,,,,,,,,,,,,,,,['3'],[5.846786099951714],4,001,A,2023_Jan_31_1546,student_TT_local,2021.1.4,59.72224378720723,
,,,,,,,,,,,,,,,,,,,,kinestheticImageryScale.png,"While imagining yourself typing, how intense were the sensations associated with the imagined movement?

Press a number on your keyboard according to the rating scale below to give your answer. Your first answer will be accepted.",,,,,,,,,,,,,,,,,,,,,,,,,,,,,,,,,,,,,,,,,,,,,,,,,,,,,,,,,,,,,0,2,2,2,,,,,,,,,,,,,,,,,,,,,,,,,,,,,,,,,,,,,,,,['1'],[4.518258499912918],4,001,A,2023_Jan_31_1546,student_TT_local,2021.1.4,59.72224378720723,
