pracWords,instr_1,instr_2,AOMI_Ima,AOMI_w,AOMI_h,practiceWords,prac_time,prac_bkgd_time,pracVid_1,pracVid_2,baseline_words,control_words,cont_time,cont_bgkd_time,first_vids,second_vids,AOMIfirst_words,AOMIsecond_words,Order,ratingScale,rateInstr,instructLoop.thisRepN,instructLoop.thisTrialN,instructLoop.thisN,instructLoop.thisIndex,practice_control.thisRepN,practice_control.thisTrialN,practice_control.thisN,practice_control.thisIndex,trials_1.thisRepN,trials_1.thisTrialN,trials_1.thisN,trials_1.thisIndex,baseRateLoop.thisRepN,baseRateLoop.thisTrialN,baseRateLoop.thisN,baseRateLoop.thisIndex,AOMIinstrLoop1.thisRepN,AOMIinstrLoop1.thisTrialN,AOMIinstrLoop1.thisN,AOMIinstrLoop1.thisIndex,AOMIpracLoop.thisRepN,AOMIpracLoop.thisTrialN,AOMIpracLoop.thisN,AOMIpracLoop.thisIndex,trials_2.thisRepN,trials_2.thisTrialN,trials_2.thisN,trials_2.thisIndex,AOMI1rateLoop.thisRepN,AOMI1rateLoop.thisTrialN,AOMI1rateLoop.thisN,AOMI1rateLoop.thisIndex,contInstrLoop.thisRepN,contInstrLoop.thisTrialN,contInstrLoop.thisN,contInstrLoop.thisIndex,contPracLoop.thisRepN,contPracLoop.thisTrialN,contPracLoop.thisN,contPracLoop.thisIndex,trials_3.thisRepN,trials_3.thisTrialN,trials_3.thisN,trials_3.thisIndex,contRateLoop.thisRepN,contRateLoop.thisTrialN,contRateLoop.thisN,contRateLoop.thisIndex,AOMIinstrLoop2.thisRepN,AOMIinstrLoop2.thisTrialN,AOMIinstrLoop2.thisN,AOMIinstrLoop2.thisIndex,AOMIpracLoop2.thisRepN,AOMIpracLoop2.thisTrialN,AOMIpracLoop2.thisN,AOMIpracLoop2.thisIndex,trials_4.thisRepN,trials_4.thisTrialN,trials_4.thisN,trials_4.thisIndex,AOMI2rateLoop.thisRepN,AOMI2rateLoop.thisTrialN,AOMI2rateLoop.thisN,AOMI2rateLoop.thisIndex,pracBkgdKeys.keys,pracKeys.keys,pracKeys.rt,baseBkgdKeys.keys,baseBkgdKeys.rt,base_typedWord,baseKeys.keys,baseKeys.rt,baseRateTypeKey.keys,baseRateTypeKey.rt,AOMI1_BkgdKeys.keys,AOMI_promptBkgdKeys.keys,AOMI1pracKeys.keys,AOMI1pracKeys.rt,AOMI1bkdgKeys.keys,AOMI1_typedWord,AOMI1keys.keys,AOMI1keys.rt,AOMI1rateTypeKey.keys,AOMI1rateTypeKey.rt,polygon_prac.started,polygon_prac.stopped,contBkgdKeys_prac.keys,contPrac_typedWord,contKeys_prac.keys,contKeys_prac.rt,polygon.started,polygon.stopped,contBkgdKeys.keys,cont_typedWord,contKeys.keys,contKeys.rt,contTypeKey.keys,contTypeKey.rt,bkgdkeys_prac2.keys,bkgdKeys4.keys,AOMI2_typedWord,keyboardCom4.keys,keyboardCom4.rt,AOMI2typeKey.keys,AOMI2typeKey.rt,participant,session,group,date,expName,psychopyVersion,frameRate,
update,,,,,,,,,,,,,,,,,,,,,,,,,,0,0,0,2,,,,,,,,,,,,,,,,,,,,,,,,,,,,,,,,,,,,,,,,,,,,,,,,,,,,,,,,,None,"['u', 'p', 'd', 'a', 't', 'e', 'return']","[0.5445766998454928, 0.6406298999208957, 0.8814462998416275, 0.9763257999438792, 1.240860999794677, 1.3447640999220312, 1.6251750998198986]",,,,,,,,,,,,,,,,,,,,,,,,,,,,,,,,,,,,,,,5,001,D,2023_Jan_30_1646,student_TT_local,2021.1.4,60.51587364164571,
height,,,,,,,,,,,,,,,,,,,,,,,,,,0,1,1,0,,,,,,,,,,,,,,,,,,,,,,,,,,,,,,,,,,,,,,,,,,,,,,,,,,,,,,,,,None,"['h', 'r', 'i', 'g', 'h', 't', 'return']","[0.3562746997922659, 0.4518774999305606, 0.6678578997962177, 0.8532343998085707, 0.9251216999255121, 1.083830799907446, 1.3723365999758244]",,,,,,,,,,,,,,,,,,,,,,,,,,,,,,,,,,,,,,,5,001,D,2023_Jan_30_1646,student_TT_local,2021.1.4,60.51587364164571,
replay,,,,,,,,,,,,,,,,,,,,,,,,,,0,2,2,1,,,,,,,,,,,,,,,,,,,,,,,,,,,,,,,,,,,,,,,,,,,,,,,,,,,,,,,,,None,"['r', 'e', 'p', 'l', 'a', 'y', 'return']","[0.3964408999308944, 0.5234964999835938, 0.6753608998842537, 0.748268699971959, 1.0838675000704825, 1.4353986999485642, 1.9313922999426723]",,,,,,,,,,,,,,,,,,,,,,,,,,,,,,,,,,,,,,,5,001,D,2023_Jan_30_1646,student_TT_local,2021.1.4,60.51587364164571,
,None,None,None,None,None,None,None,None,None,None,parole,hamlet,19.5,20.5,video&audio/Sentence4_touch_edited.mp4,video&audio/shroud_touch_edited.mp4,jackal,shroud,None,,,,,,,,,,,0,0,0,9,,,,,,,,,,,,,,,,,,,,,,,,,,,,,,,,,,,,,,,,,,,,,,,,,,,,,,,,['p'],[2.5172602001111954], pareole,"['p', 'a', 'r', 'e', 'o', 'l', 'e', 'return']","[0.5734510000329465, 0.7423499999567866, 1.0132929999381304, 1.10136489989236, 1.21453160000965, 1.398103900020942, 1.5338190998882055, 1.8775598998181522]",,,,,,,,,,,,,,,,,,,,,,,,,,,,,,,,,,5,001,D,2023_Jan_30_1646,student_TT_local,2021.1.4,60.51587364164571,
,None,None,None,None,None,None,None,None,None,None,sonnet,hearth,19.5,20.5,video&audio/Sentence3_touch_edited.mp4,video&audio/herbal_touch_edited.mp4,hippie,herbal,None,,,,,,,,,,,0,1,1,14,,,,,,,,,,,,,,,,,,,,,,,,,,,,,,,,,,,,,,,,,,,,,,,,,,,,,,,,None,, sonnet,"['s', 'o', 'n', 'n', 'e', 't', 'return']","[0.3830198000650853, 0.5665658998768777, 0.7986220000311732, 0.9184195999987423, 1.0629968999419361, 1.1748081999830902, 1.463030599988997]",,,,,,,,,,,,,,,,,,,,,,,,,,,,,,,,,,5,001,D,2023_Jan_30_1646,student_TT_local,2021.1.4,60.51587364164571,
,None,None,None,None,None,None,None,None,None,None,legion,campus,6.5,7.5,video&audio/sentence6_TT_3X.mp4,video&audio/allure_TT_3X.mp4,forage,allure,None,,,,,,,,,,,0,2,2,29,,,,,,,,,,,,,,,,,,,,,,,,,,,,,,,,,,,,,,,,,,,,,,,,,,,,,,,,None,, legion,"['l', 'e', 'g', 'i', 'o', 'n', 'return']","[0.4489037999883294, 0.5687476999592036, 0.7529005999676883, 0.9286718000657856, 1.0408983998931944, 1.1447042000945657, 1.5925994000863284]",,,,,,,,,,,,,,,,,,,,,,,,,,,,,,,,,,5,001,D,2023_Jan_30_1646,student_TT_local,2021.1.4,60.51587364164571,
,None,None,None,None,None,None,None,None,None,None,pursue,caviar,6.5,7.5,video&audio/sentence3_TT_3X.mp4,video&audio/shrill_TT_3X.mp4,piston,shrill,None,,,,,,,,,,,0,3,3,20,,,,,,,,,,,,,,,,,,,,,,,,,,,,,,,,,,,,,,,,,,,,,,,,,,,,,,,,None,, pursue,"['p', 'u', 'r', 's', 'u', 'e', 'return']","[0.3594941000919789, 0.72664749994874, 0.9266717999707907, 1.1187831000424922, 1.43937909998931, 1.5587292001582682, 1.8070275001227856]",,,,,,,,,,,,,,,,,,,,,,,,,,,,,,,,,,5,001,D,2023_Jan_30_1646,student_TT_local,2021.1.4,60.51587364164571,
,None,None,None,None,None,None,None,None,None,None,infirm,oblige,19.5,20.5,video&audio/Sentence4_touch_edited.mp4,video&audio/mystic_touch_edited.mp4,pulpit,mystic,None,,,,,,,,,,,0,4,4,3,,,,,,,,,,,,,,,,,,,,,,,,,,,,,,,,,,,,,,,,,,,,,,,,,,,,,,,,None,, infirm,"['i', 'n', 'f', 'i', 'r', 'm', 'return']","[0.4832569998688996, 0.5553839998319745, 0.7148124999366701, 0.9559545998927206, 1.1397537000011653, 1.3389877998270094, 1.6830223000142723]",,,,,,,,,,,,,,,,,,,,,,,,,,,,,,,,,,5,001,D,2023_Jan_30_1646,student_TT_local,2021.1.4,60.51587364164571,
,"While you watch the video, imagine yourself typing the word on the screen, like how you did in the imagery practice. While you watch the video and imagine this, rest your hands on your keyboard but DO NOT type until AFTER you see the typing prompt.

Press 'enter/return' to go to the next page.","While watching the video, imagine yourself typing the word on the screen, like how you did in the imagery practice. While you watch the video and imagine this, rest your hands on your keyboard but DO NOT type until AFTER you see the typing prompt.

Press 'enter/return' to go to the next page.",video&audio/Example_AOMI_imagine.png,1.6,1,butter,6.5,7.5,video&audio/amount_TT_3X.mp4,video&audio/butter_TT_3X.mp4,plight,metric,19.5,20.5,video&audio/Sentence2_touch_edited.mp4,video&audio/eatery_touch_edited.mp4,ascend,eatery,2 = AOMIspec,,,,,,,,,,,0,5,5,1,,,,,,,,,,,,,,,,,,,,,,,,,,,,,,,,,,,,,,,,,,,,,,,,,,,,,,,,None,, plgiht,"['p', 'l', 'g', 'i', 'h', 't', 'return']","[0.5807434001471847, 0.6839124001562595, 0.9000470000319183, 1.0127729000523686, 1.100439399946481, 1.2761652001645416, 1.6524088999722153]",,,,,,,,,,,,,,,,,,,,,,,,,,,,,,,,,,5,001,D,2023_Jan_30_1646,student_TT_local,2021.1.4,60.51587364164571,
,None,None,None,None,None,None,None,None,None,None,potent,tandem,6.5,7.5,video&audio/sentence4_TT_3X.mp4,video&audio/origin_TT_3X.mp4,falter,origin,None,,,,,,,,,,,0,6,6,15,,,,,,,,,,,,,,,,,,,,,,,,,,,,,,,,,,,,,,,,,,,,,,,,,,,,,,,,None,, potent,"['p', 'o', 't', 'e', 'n', 'y', 'backspace', 't', 'return']","[0.4031706000678241, 0.5469196999911219, 0.755571800051257, 0.9069131000433117, 1.0512822000309825, 1.2190334999468178, 1.900015400024131, 2.091402000049129, 2.235305600101128]",,,,,,,,,,,,,,,,,,,,,,,,,,,,,,,,,,5,001,D,2023_Jan_30_1646,student_TT_local,2021.1.4,60.51587364164571,
,None,None,None,None,None,None,None,None,None,None,strife,delude,19.5,20.5,video&audio/Sentence2_touch_edited.mp4,video&audio/galley_touch_edited.mp4,tariff,galley,None,,,,,,,,,,,0,7,7,7,,,,,,,,,,,,,,,,,,,,,,,,,,,,,,,,,,,,,,,,,,,,,,,,,,,,,,,,None,, strife,"['s', 't', 'r', 'i', 'f', 'e', 'return']","[0.5014184000901878, 0.6774657999631017, 1.5014575000386685, 1.6221847999840975, 1.8139456999488175, 1.925735600059852, 2.1178107000887394]",,,,,,,,,,,,,,,,,,,,,,,,,,,,,,,,,,5,001,D,2023_Jan_30_1646,student_TT_local,2021.1.4,60.51587364164571,
,"Remember to type as QUICKLY and ACCURATELY as possible after the 'get ready' prompt.

Ask the experimenter any questions now. Please put on the headphones.

You will get one practice trial. Press 'enter/return' when you are ready to start the practice.","Remember to type as QUICKLY and ACCURATELY as you can after the 'get ready' prompt.

Ask the experimenter any questions now. Please put on the headphones.

You will get one practice trial. Press 'enter/return' when you are ready to start the practice.",video&audio/Example_AOMI_total.png,1.8,0.7,None,None,None,None,None,jargon,oppose,19.5,20.5,video&audio/Sentence3_touch_edited.mp4,video&audio/ghetto_touch_edited.mp4,frugal,ghetto,None,,,,,,,,,,,0,8,8,2,,,,,,,,,,,,,,,,,,,,,,,,,,,,,,,,,,,,,,,,,,,,,,,,,,,,,,,,None,, jargon,"['j', 'a', 'r', 'g', 'o', 'n', 'return']","[0.5842353999614716, 0.7047955000307411, 0.9118546999525279, 1.1843250999227166, 1.2880358998663723, 1.5842189998365939, 1.84041089983657]",,,,,,,,,,,,,,,,,,,,,,,,,,,,,,,,,,5,001,D,2023_Jan_30_1646,student_TT_local,2021.1.4,60.51587364164571,
,None,None,None,None,None,None,None,None,None,None,convoy,output,6.5,7.5,video&audio/sentence1_TT_3X.mp4,video&audio/uphold_TT_3X.mp4,debtor,uphold,None,,,,,,,,,,,0,9,9,18,,,,,,,,,,,,,,,,,,,,,,,,,,,,,,,,,,,,,,,,,,,,,,,,,,,,,,,,None,, convoy,"['c', 'o', 'n', 'v', 'o', 'y', 'return']","[0.6246119998395443, 0.7207493998575956, 0.8479710000101477, 1.0562681998126209, 1.1839326999615878, 1.4800391998142004, 1.727918699849397]",,,,,,,,,,,,,,,,,,,,,,,,,,,,,,,,,,5,001,D,2023_Jan_30_1646,student_TT_local,2021.1.4,60.51587364164571,
,None,None,None,None,None,None,None,None,None,None,ordain,patent,19.5,20.5,video&audio/Sentence6_touch_edited.mp4,video&audio/defame_touch_edited.mp4,covert,defame,None,,,,,,,,,,,0,10,10,11,,,,,,,,,,,,,,,,,,,,,,,,,,,,,,,,,,,,,,,,,,,,,,,,,,,,,,,,None,, ordain,"['o', 'r', 'd', 'a', 'i', 'n', 'return']","[0.48384739994071424, 0.6119321999140084, 0.8203374000731856, 1.0360125000588596, 1.1560009999666363, 1.236168700037524, 1.627778199966997]",,,,,,,,,,,,,,,,,,,,,,,,,,,,,,,,,,5,001,D,2023_Jan_30_1646,student_TT_local,2021.1.4,60.51587364164571,
,None,None,None,None,None,None,None,None,None,None,murmur,cobble,6.5,7.5,video&audio/sentence2_TT_3X.mp4,video&audio/export_TT_3X.mp4,cervix,export,None,,,,,,,,,,,0,11,11,19,,,,,,,,,,,,,,,,,,,,,,,,,,,,,,,,,,,,,,,,,,,,,,,,,,,,,,,,None,, murmur,"['m', 'u', 'r', 'm', 'u', 'r', 'return']","[0.4377423000987619, 0.6458268000278622, 1.678273000055924, 1.8225650999229401, 2.005600499920547, 2.1592810000292957, 3.038296200102195]",,,,,,,,,,,,,,,,,,,,,,,,,,,,,,,,,,5,001,D,2023_Jan_30_1646,student_TT_local,2021.1.4,60.51587364164571,
,None,None,None,None,None,None,None,None,None,None,novice,primal,19.5,20.5,video&audio/Sentence5_touch_edited.mp4,video&audio/entail_touch_edited.mp4,parcel,entail,None,,,,,,,,,,,0,12,12,4,,,,,,,,,,,,,,,,,,,,,,,,,,,,,,,,,,,,,,,,,,,,,,,,,,,,,,,,None,, novice,"['n', 'o', 'v', 'i', 'c', 'e', 'return']","[0.37916440004482865, 0.4751146000344306, 0.651500100037083, 0.8354397001676261, 1.0595384000334889, 1.2270339000970125, 1.5393284000456333]",,,,,,,,,,,,,,,,,,,,,,,,,,,,,,,,,,5,001,D,2023_Jan_30_1646,student_TT_local,2021.1.4,60.51587364164571,
,None,None,None,None,None,None,None,None,None,None,fodder,trench,6.5,7.5,video&audio/sentence4_TT_3X.mp4,video&audio/ethnic_TT_3X.mp4,botany,ethnic,None,,,,,,,,,,,0,13,13,27,,,,,,,,,,,,,,,,,,,,,,,,,,,,,,,,,,,,,,,,,,,,,,,,,,,,,,,,None,, fodder,"['f', 'o', 'd', 'd', 'e', 'r', 'return']","[0.4988655000925064, 0.6908607999794185, 0.8030840000137687, 0.9468179000541568, 1.1143948999233544, 1.1867941000964493, 1.4349247999489307]",,,,,,,,,,,,,,,,,,,,,,,,,,,,,,,,,,5,001,D,2023_Jan_30_1646,student_TT_local,2021.1.4,60.51587364164571,
,None,None,None,None,None,None,None,None,None,None,upkeep,parish,6.5,7.5,video&audio/sentence5_TT_3X.mp4,video&audio/gullet_TT_3X.mp4,picket,gullet,None,,,,,,,,,,,0,14,14,28,,,,,,,,,,,,,,,,,,,,,,,,,,,,,,,,,,,,,,,,,,,,,,,,,,,,,,,,None,, upkeep,"['u', 'p', 'k', 'e', 'e', 'p', 'return']","[0.35124609991908073, 0.49456109991297126, 0.9103119999635965, 1.0704562000464648, 1.2221111000981182, 1.3186103000771254, 1.6625526999123394]",,,,,,,,,,,,,,,,,,,,,,,,,,,,,,,,,,5,001,D,2023_Jan_30_1646,student_TT_local,2021.1.4,60.51587364164571,
,None,None,None,None,None,None,None,None,None,None,satire,mangle,6.5,7.5,video&audio/sentence1_TT_3X.mp4,video&audio/warble_TT_3X.mp4,devise,warble,None,,,,,,,,,,,0,15,15,24,,,,,,,,,,,,,,,,,,,,,,,,,,,,,,,,,,,,,,,,,,,,,,,,,,,,,,,,None,, satire,"['s', 'a', 't', 'i', 'r', 'e', 'return']","[0.47553239995613694, 0.5794013999402523, 0.8674673999194056, 0.9636423999909312, 1.1246911999769509, 1.2359617999754846, 1.4993497999385]",,,,,,,,,,,,,,,,,,,,,,,,,,,,,,,,,,5,001,D,2023_Jan_30_1646,student_TT_local,2021.1.4,60.51587364164571,
,None,None,None,None,None,None,None,None,None,None,revolt,joiner,19.5,20.5,video&audio/Sentence6_touch_edited.mp4,video&audio/apathy_touch_edited.mp4,virile,apathy,None,,,,,,,,,,,0,16,16,5,,,,,,,,,,,,,,,,,,,,,,,,,,,,,,,,,,,,,,,,,,,,,,,,,,,,,,,,None,, revolt,"['r', 'e', 'c', 'o', 'l', 't', 'backspace', 'backspace', 'backspace', 'backspace', 'v', 'o', 'l', 't', 'return']","[0.421527799917385, 0.5016757999546826, 0.7497407000046223, 0.8541546000633389, 1.0698565999045968, 1.18993049999699, 1.8299241000786424, 2.006024400005117, 2.142033499898389, 2.309932099888101, 2.90185540006496, 3.0775748998858035, 3.269842700101435, 3.5418513999320567, 3.6616024000104517]",,,,,,,,,,,,,,,,,,,,,,,,,,,,,,,,,,5,001,D,2023_Jan_30_1646,student_TT_local,2021.1.4,60.51587364164571,
,None,None,None,None,None,None,None,None,None,None,coerce,clergy,6.5,7.5,video&audio/sentence6_TT_3X.mp4,video&audio/portal_TT_3X.mp4,ritual,portal,None,,,,,,,,,,,0,17,17,17,,,,,,,,,,,,,,,,,,,,,,,,,,,,,,,,,,,,,,,,,,,,,,,,,,,,,,,,None,, coerce,"['c', 'o', 'e', 'r', 'c', 'e', 'return']","[0.5436271999496967, 0.6883312000427395, 0.8732010000385344, 1.0078336000442505, 1.2958804999943823, 1.407937000039965, 1.5920959000941366]",,,,,,,,,,,,,,,,,,,,,,,,,,,,,,,,,,5,001,D,2023_Jan_30_1646,student_TT_local,2021.1.4,60.51587364164571,
,None,None,None,None,None,None,None,None,None,None,quarry,septic,19.5,20.5,video&audio/Sentence2_touch_edited.mp4,video&audio/innate_touch_edited.mp4,neural,innate,None,,,,,,,,,,,0,18,18,13,,,,,,,,,,,,,,,,,,,,,,,,,,,,,,,,,,,,,,,,,,,,,,,,,,,,,,,,None,, quarry,"['q', 'u', 'a', 'r', 'r', 'y', 'return']","[0.44840910006314516, 0.5929578000213951, 0.7524065000470728, 0.9849797000642866, 1.1125622999388725, 1.3767363000661135, 1.592474800068885]",,,,,,,,,,,,,,,,,,,,,,,,,,,,,,,,,,5,001,D,2023_Jan_30_1646,student_TT_local,2021.1.4,60.51587364164571,
,None,None,None,None,None,None,None,None,None,None,goblet,befall,19.5,20.5,video&audio/Sentence3_touch_edited.mp4,video&audio/ration_touch_edited.mp4,solemn,ration,None,,,,,,,,,,,0,19,19,8,,,,,,,,,,,,,,,,,,,,,,,,,,,,,,,,,,,,,,,,,,,,,,,,,,,,,,,,None,, goblet,"['g', 'o', 'b', 'l', 'e', 't', 'return']","[0.45590950013138354, 0.5443409001454711, 0.7684179001953453, 1.4476766001898795, 1.6163578000850976, 1.7043823001440614, 2.0635762000456452]",,,,,,,,,,,,,,,,,,,,,,,,,,,,,,,,,,5,001,D,2023_Jan_30_1646,student_TT_local,2021.1.4,60.51587364164571,
,None,None,None,None,None,None,None,None,None,None,sherry,zephyr,19.5,20.5,video&audio/Sentence5_touch_edited.mp4,video&audio/fusion_touch_edited.mp4,obsess,fusion,None,,,,,,,,,,,0,20,20,10,,,,,,,,,,,,,,,,,,,,,,,,,,,,,,,,,,,,,,,,,,,,,,,,,,,,,,,,None,, sherry,"['s', 'h', 'e', 'r', 'r', 'y', 'return']","[0.45785639993846416, 0.6331601999700069, 0.8253430998884141, 1.0417639999650419, 1.1539143999107182, 1.4022901998832822, 1.6660541999153793]",,,,,,,,,,,,,,,,,,,,,,,,,,,,,,,,,,5,001,D,2023_Jan_30_1646,student_TT_local,2021.1.4,60.51587364164571,
,None,None,None,None,None,None,None,None,None,None,brazen,fungal,6.5,7.5,video&audio/sentence5_TT_3X.mp4,video&audio/mucous_TT_3X.mp4,subtle,mucous,None,,,,,,,,,,,0,21,21,22,,,,,,,,,,,,,,,,,,,,,,,,,,,,,,,,,,,,,,,,,,,,,,,,,,,,,,,,None,, brazen,"['b', 'r', 'a', 'z', 'e', 'n', 'return']","[0.5071116001345217, 0.579358900198713, 0.915254200110212, 1.315077600069344, 1.5489684999920428, 1.7951710000634193, 2.123147099977359]",,,,,,,,,,,,,,,,,,,,,,,,,,,,,,,,,,5,001,D,2023_Jan_30_1646,student_TT_local,2021.1.4,60.51587364164571,
,None,None,None,None,None,None,None,None,None,None,musket,meddle,6.5,7.5,video&audio/sentence2_TT_3X.mp4,video&audio/divert_TT_3X.mp4,kipper,divert,None,,,,,,,,,,,0,22,22,25,,,,,,,,,,,,,,,,,,,,,,,,,,,,,,,,,,,,,,,,,,,,,,,,,,,,,,,,None,, musket,"['m', 'u', 's', 'k', 'e', 't', 'return']","[0.4984291000291705, 0.7225166000425816, 0.8276718000415713, 1.282710999948904, 1.459131000097841, 1.5553073999471962, 1.8585358001291752]",,,,,,,,,,,,,,,,,,,,,,,,,,,,,,,,,,5,001,D,2023_Jan_30_1646,student_TT_local,2021.1.4,60.51587364164571,
,None,None,None,None,None,None,None,None,None,None,manure,girdle,6.5,7.5,video&audio/sentence6_TT_3X.mp4,video&audio/linear_TT_3X.mp4,belfry,linear,None,,,,,,,,,,,0,23,23,23,,,,,,,,,,,,,,,,,,,,,,,,,,,,,,,,,,,,,,,,,,,,,,,,,,,,,,,,None,, manusre,"['m', 'a', 'n', 'u', 's', 'r', 'e', 'return']","[0.5005690997932106, 0.6520820998121053, 0.7963521999772638, 0.9558413999620825, 1.0444334999192506, 1.2452866998501122, 1.3241186998784542, 1.5639977999962866]",,,,,,,,,,,,,,,,,,,,,,,,,,,,,,,,,,5,001,D,2023_Jan_30_1646,student_TT_local,2021.1.4,60.51587364164571,
,None,None,None,None,None,None,None,None,None,None,impose,feudal,6.5,7.5,video&audio/sentence3_TT_3X.mp4,video&audio/matron_TT_3X.mp4,subdue,matron,None,,,,,,,,,,,0,24,24,26,,,,,,,,,,,,,,,,,,,,,,,,,,,,,,,,,,,,,,,,,,,,,,,,,,,,,,,,None,, impose,"['i', 'm', 'p', 'o', 's', 'e', 'return']","[0.4868753000628203, 0.7110932001378387, 0.9351516000460833, 1.0230783000588417, 1.17508040019311, 1.2954439001623541, 1.5506268001627177]",,,,,,,,,,,,,,,,,,,,,,,,,,,,,,,,,,5,001,D,2023_Jan_30_1646,student_TT_local,2021.1.4,60.51587364164571,
,None,None,None,None,None,None,None,None,None,None,mirage,shrewd,19.5,20.5,video&audio/Sentence1_touch_edited.mp4,video&audio/revoke_touch_edited.mp4,malady,revoke,None,,,,,,,,,,,0,25,25,6,,,,,,,,,,,,,,,,,,,,,,,,,,,,,,,,,,,,,,,,,,,,,,,,,,,,,,,,None,, mirage,"['m', 'i', 'r', 'a', 'g', 'e', 'return']","[0.3626816999167204, 0.5546256999950856, 0.7065361000131816, 0.8348270000424236, 1.1151097000110894, 1.218479699920863, 1.4588593000080436]",,,,,,,,,,,,,,,,,,,,,,,,,,,,,,,,,,5,001,D,2023_Jan_30_1646,student_TT_local,2021.1.4,60.51587364164571,
,None,None,None,None,None,None,None,None,None,None,savant,induce,6.5,7.5,video&audio/sentence4_TT_3X.mp4,video&audio/mussel_TT_3X.mp4,cortex,mussel,None,,,,,,,,,,,0,26,26,21,,,,,,,,,,,,,,,,,,,,,,,,,,,,,,,,,,,,,,,,,,,,,,,,,,,,,,,,None,, savant,"['s', 'a', 'v', 'a', 'n', 't', 'return']","[0.3974929000250995, 0.5019303001463413, 0.8367161001078784, 1.1087208001408726, 1.3168095999862999, 1.4929697001352906, 1.852595099946484]",,,,,,,,,,,,,,,,,,,,,,,,,,,,,,,,,,5,001,D,2023_Jan_30_1646,student_TT_local,2021.1.4,60.51587364164571,
,"This is Section 2.

In this section, your task will be the same as before - that is, to type the word you see on the screen AFTER the typing prompt. However, rather than just seeing the word before typing, you will also see a video of someone typing different words to what you will need to type at different speeds. 

Press 'enter/return' to go to the next page.","This is Section 4. 

In this section, your task will be the same as before - that is, to type the word you see on the screen after the typing prompt. You will see a video again, like in Section 2, only this time, the video will show someone the same word that you must type at different speeds. 

Press 'enter/return' to go to the next page.",video&audio/Example_AOMI_layout.png,1.6,0.6,afford,19.5,20.5,video&audio/amount_touch_edited.mp4,video&audio/afford_touch_edited.mp4,vanity,hinder,19.5,20.5,video&audio/Sentence1_touch_edited.mp4,video&audio/breach_touch_edited.mp4,matrix,breach,1 = AOMIgen,,,,,,,,,,,0,27,27,0,,,,,,,,,,,,,,,,,,,,,,,,,,,,,,,,,,,,,,,,,,,,,,,,,,,,,,,,None,, vanity,"['v', 'a', 'n', 'i', 't', 'y', 'return']","[0.5203731001820415, 0.6163177001290023, 1.1601245000492781, 1.2806788000743836, 1.7126536001451313, 1.8001121999695897, 1.976384200155735]",,,,,,,,,,,,,,,,,,,,,,,,,,,,,,,,,,5,001,D,2023_Jan_30_1646,student_TT_local,2021.1.4,60.51587364164571,
,None,None,None,None,None,None,None,None,None,None,deduct,jailer,6.5,7.5,video&audio/sentence5_TT_3X.mp4,video&audio/nettle_TT_3X.mp4,plasma,nettle,None,,,,,,,,,,,0,28,28,16,,,,,,,,,,,,,,,,,,,,,,,,,,,,,,,,,,,,,,,,,,,,,,,,,,,,,,,,None,, decudt,"['d', 'e', 'c', 'u', 'd', 't', 'return']","[0.6797334000002593, 0.8473829999566078, 1.055121900048107, 1.2152344998903573, 1.535145599860698, 1.783145499881357, 2.023396600037813]",,,,,,,,,,,,,,,,,,,,,,,,,,,,,,,,,,5,001,D,2023_Jan_30_1646,student_TT_local,2021.1.4,60.51587364164571,
,None,None,None,None,None,None,None,None,None,None,critic,binder,19.5,20.5,video&audio/Sentence1_touch_edited.mp4,video&audio/tamper_touch_edited.mp4,confer,tamper,None,,,,,,,,,,,0,29,29,12,,,,,,,,,,,,,,,,,,,,,,,,,,,,,,,,,,,,,,,,,,,,,,,,,,,,,,,,None,, critic,"['c', 'r', 'i', 't', 'i', 'c', 'return']","[0.4327354999259114, 0.7372472998686135, 0.9215811998583376, 1.0409404998645186, 1.153282199986279, 1.3690720999147743, 1.7448054000269622]",,,,,,,,,,,,,,,,,,,,,,,,,,,,,,,,,,5,001,D,2023_Jan_30_1646,student_TT_local,2021.1.4,60.51587364164571,
,,,,,,,,,,,,,,,,,,,,typingRatingScale.png,"How would you rate your typing performance in the previous section?

Press a number on your keyboard according to the rating scale below to give your answer. Your first answer will be accepted.",,,,,,,,,,,,,0,0,0,0,,,,,,,,,,,,,,,,,,,,,,,,,,,,,,,,,,,,,,,,,,,,,,,,,,,,,,,,,['3'],[22.720229599857703],,,,,,,,,,,,,,,,,,,,,,,,,,,,,,,,5,001,D,2023_Jan_30_1646,student_TT_local,2021.1.4,60.51587364164571,
,,,,,,,,,,,,,,,,,,,,imageryCheckScale.png,"In the previous section did you imagine yourself typing?

Press a number on your keyboard according to the rating scale below to give your answer. Your first answer will be accepted.",,,,,,,,,,,,,0,1,1,1,,,,,,,,,,,,,,,,,,,,,,,,,,,,,,,,,,,,,,,,,,,,,,,,,,,,,,,,,['2'],[9.666694700019434],,,,,,,,,,,,,,,,,,,,,,,,,,,,,,,,5,001,D,2023_Jan_30_1646,student_TT_local,2021.1.4,60.51587364164571,
,None,None,None,None,None,None,None,None,None,None,critic,binder,19.5,20.5,video&audio/Sentence1_touch_edited.mp4,video&audio/tamper_touch_edited.mp4,confer,tamper,None,,,,,,,,,,,,,,,,,,,,,,,,,,,0,0,0,12,,,,,,,,,,,,,,,,,,,,,,,,,,,,,,,,,,,,,,,,,,,,,,,None,None,"['b', 'u', 't', 't', 'e', 'r', 'return']","[0.6134234999772161, 0.7737802998162806, 1.01346159982495, 1.1815421998035163, 1.34878270002082, 1.4047621998470277, 1.661579499952495]",None, confer,"['c', 'o', 'n', 'f', 'e', 'r', 'return']","[0.9646326000802219, 1.0610098999459296, 1.1579392000567168, 1.2765466999262571, 1.3966926001012325, 1.4934243999887258, 1.772215399891138]",,,,,,,,,,,,,,,,,,,,,,,,5,001,D,2023_Jan_30_1646,student_TT_local,2021.1.4,60.51587364164571,
,None,None,None,None,None,None,None,None,None,None,manure,girdle,6.5,7.5,video&audio/sentence6_TT_3X.mp4,video&audio/linear_TT_3X.mp4,belfry,linear,None,,,,,,,,,,,,,,,,,,,,,,,,,,,0,1,1,23,,,,,,,,,,,,,,,,,,,,,,,,,,,,,,,,,,,,,,,,,,,,,,,,None,,,None, belfry,"['b', 'e', 'l', 'f', 'r', 'y', 'return']","[0.6069904998876154, 1.0553081999532878, 1.398587099974975, 1.5907528998795897, 1.7986235998105258, 1.8954076999798417, 2.1352174999192357]",,,,,,,,,,,,,,,,,,,,,,,,5,001,D,2023_Jan_30_1646,student_TT_local,2021.1.4,60.51587364164571,
,None,None,None,None,None,None,None,None,None,None,satire,mangle,6.5,7.5,video&audio/sentence1_TT_3X.mp4,video&audio/warble_TT_3X.mp4,devise,warble,None,,,,,,,,,,,,,,,,,,,,,,,,,,,0,2,2,24,,,,,,,,,,,,,,,,,,,,,,,,,,,,,,,,,,,,,,,,,,,,,,,,None,,,None, devise,"['d', 'e', 'v', 'i', 's', 'e', 'return']","[0.47970120003446937, 0.6790343001484871, 0.8880727000068873, 1.0637124001514167, 1.1993495000060648, 1.3673080001026392, 1.6558437999337912]",,,,,,,,,,,,,,,,,,,,,,,,5,001,D,2023_Jan_30_1646,student_TT_local,2021.1.4,60.51587364164571,
,None,None,None,None,None,None,None,None,None,None,impose,feudal,6.5,7.5,video&audio/sentence3_TT_3X.mp4,video&audio/matron_TT_3X.mp4,subdue,matron,None,,,,,,,,,,,,,,,,,,,,,,,,,,,0,3,3,26,,,,,,,,,,,,,,,,,,,,,,,,,,,,,,,,,,,,,,,,,,,,,,,,None,,,None, subdue,"['s', 'u', 'b', 'd', 'u', 'return']","[0.983811000129208, 1.1109909999649972, 1.575276399962604, 1.9510999000631273, 2.094932100037113, 2.5592841000761837]",,,,,,,,,,,,,,,,,,,,,,,,5,001,D,2023_Jan_30_1646,student_TT_local,2021.1.4,60.51587364164571,
,None,None,None,None,None,None,None,None,None,None,strife,delude,19.5,20.5,video&audio/Sentence2_touch_edited.mp4,video&audio/galley_touch_edited.mp4,tariff,galley,None,,,,,,,,,,,,,,,,,,,,,,,,,,,0,4,4,7,,,,,,,,,,,,,,,,,,,,,,,,,,,,,,,,,,,,,,,,,,,,,,,,None,,,None, tarif,"['t', 'a', 'r', 'i', 'f', 'return']","[0.5286403000354767, 0.7372777999844402, 1.152688100002706, 1.3200255001429468, 1.5533475000411272, 1.8966968001332134]",,,,,,,,,,,,,,,,,,,,,,,,5,001,D,2023_Jan_30_1646,student_TT_local,2021.1.4,60.51587364164571,
,None,None,None,None,None,None,None,None,None,None,infirm,oblige,19.5,20.5,video&audio/Sentence4_touch_edited.mp4,video&audio/mystic_touch_edited.mp4,pulpit,mystic,None,,,,,,,,,,,,,,,,,,,,,,,,,,,0,5,5,3,,,,,,,,,,,,,,,,,,,,,,,,,,,,,,,,,,,,,,,,,,,,,,,,None,,,None, pulpit,"['p', 'u', 'l', 'p', 'i', 't', 'return']","[0.9586674000602216, 1.1267329999245703, 1.5584213000256568, 1.7834389000199735, 1.942580800037831, 2.2061693998984993, 2.4787196000106633]",,,,,,,,,,,,,,,,,,,,,,,,5,001,D,2023_Jan_30_1646,student_TT_local,2021.1.4,60.51587364164571,
,None,None,None,None,None,None,None,None,None,None,coerce,clergy,6.5,7.5,video&audio/sentence6_TT_3X.mp4,video&audio/portal_TT_3X.mp4,ritual,portal,None,,,,,,,,,,,,,,,,,,,,,,,,,,,0,6,6,17,,,,,,,,,,,,,,,,,,,,,,,,,,,,,,,,,,,,,,,,,,,,,,,,None,,,None, ritual,"['r', 'i', 't', 'u', 'a', 'l', 'return']","[0.6702845001127571, 0.9187044000718743, 1.0623137999791652, 1.5427667999174446, 1.7663455998990685, 1.9505119000095874, 2.3421022000256926]",,,,,,,,,,,,,,,,,,,,,,,,5,001,D,2023_Jan_30_1646,student_TT_local,2021.1.4,60.51587364164571,
,None,None,None,None,None,None,None,None,None,None,mirage,shrewd,19.5,20.5,video&audio/Sentence1_touch_edited.mp4,video&audio/revoke_touch_edited.mp4,malady,revoke,None,,,,,,,,,,,,,,,,,,,,,,,,,,,0,7,7,6,,,,,,,,,,,,,,,,,,,,,,,,,,,,,,,,,,,,,,,,,,,,,,,,None,,,None, malady,"['m', 'a', 'l', 'a', 'd', 'y', 'return']","[0.5949005000293255, 0.7704779000487179, 0.9062212000135332, 1.130517499987036, 1.642592400079593, 1.7301668000873178, 2.12233730009757]",,,,,,,,,,,,,,,,,,,,,,,,5,001,D,2023_Jan_30_1646,student_TT_local,2021.1.4,60.51587364164571,
,None,None,None,None,None,None,None,None,None,None,brazen,fungal,6.5,7.5,video&audio/sentence5_TT_3X.mp4,video&audio/mucous_TT_3X.mp4,subtle,mucous,None,,,,,,,,,,,,,,,,,,,,,,,,,,,0,8,8,22,,,,,,,,,,,,,,,,,,,,,,,,,,,,,,,,,,,,,,,,,,,,,,,,None,,,None, dubtle,"['d', 'u', 'b', 't', 'l', 'e', 'return']","[0.6834913000930101, 0.803664900129661, 1.0039731999859214, 1.251394199905917, 1.6914721000939608, 2.0113184999208897, 2.635626600123942]",,,,,,,,,,,,,,,,,,,,,,,,5,001,D,2023_Jan_30_1646,student_TT_local,2021.1.4,60.51587364164571,
,None,None,None,None,None,None,None,None,None,None,deduct,jailer,6.5,7.5,video&audio/sentence5_TT_3X.mp4,video&audio/nettle_TT_3X.mp4,plasma,nettle,None,,,,,,,,,,,,,,,,,,,,,,,,,,,0,9,9,16,,,,,,,,,,,,,,,,,,,,,,,,,,,,,,,,,,,,,,,,,,,,,,,,None,,,None, plasma,"['p', 'l', 's', 'a', 'm', 'a', 'backspace', 'backspace', 'backspace', 'a', 'm', 'backspace', 's', 'm', 'a', 'return']","[0.9022812000475824, 0.9582013001199812, 1.2547691999934614, 1.262402400141582, 1.6707282999996096, 1.830201500095427, 2.8067151000723243, 2.9662898001261055, 3.094269199995324, 3.518689200049266, 3.8701567000243813, 4.374879200011492, 4.534291899995878, 4.75042980001308, 4.910317000001669, 5.142596499994397]",,,,,,,,,,,,,,,,,,,,,,,,5,001,D,2023_Jan_30_1646,student_TT_local,2021.1.4,60.51587364164571,
,None,None,None,None,None,None,None,None,None,None,legion,campus,6.5,7.5,video&audio/sentence6_TT_3X.mp4,video&audio/allure_TT_3X.mp4,forage,allure,None,,,,,,,,,,,,,,,,,,,,,,,,,,,0,10,10,29,,,,,,,,,,,,,,,,,,,,,,,,,,,,,,,,,,,,,,,,,,,,,,,,None,,,None, forage,"['f', 'o', 'r', 'a', 'g', 'e', 'return']","[0.5596115000080317, 0.710925699910149, 0.8793865998741239, 0.9752061998005956, 1.2561307998839766, 1.3596946999896318, 1.5673815999180079]",,,,,,,,,,,,,,,,,,,,,,,,5,001,D,2023_Jan_30_1646,student_TT_local,2021.1.4,60.51587364164571,
,None,None,None,None,None,None,None,None,None,None,convoy,output,6.5,7.5,video&audio/sentence1_TT_3X.mp4,video&audio/uphold_TT_3X.mp4,debtor,uphold,None,,,,,,,,,,,,,,,,,,,,,,,,,,,0,11,11,18,,,,,,,,,,,,,,,,,,,,,,,,,,,,,,,,,,,,,,,,,,,,,,,,None,,,None, debtor,"['d', 'e', 'b', 't', 'o', 'r', 'return']","[0.7150982001330703, 0.8985558999702334, 1.1785087999887764, 1.4185866999905556, 1.71436160011217, 1.8830095999874175, 2.2350040001329035]",,,,,,,,,,,,,,,,,,,,,,,,5,001,D,2023_Jan_30_1646,student_TT_local,2021.1.4,60.51587364164571,
,None,None,None,None,None,None,None,None,None,None,sherry,zephyr,19.5,20.5,video&audio/Sentence5_touch_edited.mp4,video&audio/fusion_touch_edited.mp4,obsess,fusion,None,,,,,,,,,,,,,,,,,,,,,,,,,,,0,12,12,10,,,,,,,,,,,,,,,,,,,,,,,,,,,,,,,,,,,,,,,,,,,,,,,,None,,,None, obsess,"['o', 'b', 's', 'e', 's', 's', 'return']","[0.8319121000822634, 1.0881827999837697, 1.4079339001327753, 1.5925908000208437, 1.840641099959612, 2.239949299953878, 2.4407476000487804]",,,,,,,,,,,,,,,,,,,,,,,,5,001,D,2023_Jan_30_1646,student_TT_local,2021.1.4,60.51587364164571,
,None,None,None,None,None,None,None,None,None,None,potent,tandem,6.5,7.5,video&audio/sentence4_TT_3X.mp4,video&audio/origin_TT_3X.mp4,falter,origin,None,,,,,,,,,,,,,,,,,,,,,,,,,,,0,13,13,15,,,,,,,,,,,,,,,,,,,,,,,,,,,,,,,,,,,,,,,,,,,,,,,,None,,,None, falter,"['f', 'a', 't', 'backspace', 'l', 't', 'e', 'r', 'return']","[0.43719520000740886, 0.5890917000360787, 1.0932416000869125, 1.740746800089255, 1.9333019000478089, 2.0373619999736547, 2.188853800063953, 2.2288430999033153, 2.4537198001053184]",,,,,,,,,,,,,,,,,,,,,,,,5,001,D,2023_Jan_30_1646,student_TT_local,2021.1.4,60.51587364164571,
,None,None,None,None,None,None,None,None,None,None,upkeep,parish,6.5,7.5,video&audio/sentence5_TT_3X.mp4,video&audio/gullet_TT_3X.mp4,picket,gullet,None,,,,,,,,,,,,,,,,,,,,,,,,,,,0,14,14,28,,,,,,,,,,,,,,,,,,,,,,,,,,,,,,,,,,,,,,,,,,,,,,,,None,,,None, picket,"['p', 'i', 'c', 'k', 'e', 't', 'return']","[0.48807450011372566, 0.6557982999365777, 0.847717999946326, 1.0246488000266254, 1.2080381999257952, 1.3048604000359774, 1.4877671001013368]",,,,,,,,,,,,,,,,,,,,,,,,5,001,D,2023_Jan_30_1646,student_TT_local,2021.1.4,60.51587364164571,
,None,None,None,None,None,None,None,None,None,None,quarry,septic,19.5,20.5,video&audio/Sentence2_touch_edited.mp4,video&audio/innate_touch_edited.mp4,neural,innate,None,,,,,,,,,,,,,,,,,,,,,,,,,,,0,15,15,13,,,,,,,,,,,,,,,,,,,,,,,,,,,,,,,,,,,,,,,,,,,,,,,,None,,,None, neural,"['n', 'e', 'u', 'r', 'a', 'l', 'return']","[0.5281553999520838, 0.6555506999138743, 0.8235622998327017, 1.047511599957943, 1.1604885999113321, 1.4155284999869764, 1.6801775998901576]",,,,,,,,,,,,,,,,,,,,,,,,5,001,D,2023_Jan_30_1646,student_TT_local,2021.1.4,60.51587364164571,
,None,None,None,None,None,None,None,None,None,None,pursue,caviar,6.5,7.5,video&audio/sentence3_TT_3X.mp4,video&audio/shrill_TT_3X.mp4,piston,shrill,None,,,,,,,,,,,,,,,,,,,,,,,,,,,0,16,16,20,,,,,,,,,,,,,,,,,,,,,,,,,,,,,,,,,,,,,,,,,,,,,,,,None,,,None, piston,"['p', 'i', 's', 't', 'o', 'n', 'return']","[0.526033999864012, 0.742268499918282, 0.9263724000193179, 1.1666790000163019, 1.29464039998129, 1.4230861999094486, 1.8304568999446929]",,,,,,,,,,,,,,,,,,,,,,,,5,001,D,2023_Jan_30_1646,student_TT_local,2021.1.4,60.51587364164571,
,None,None,None,None,None,None,None,None,None,None,ordain,patent,19.5,20.5,video&audio/Sentence6_touch_edited.mp4,video&audio/defame_touch_edited.mp4,covert,defame,None,,,,,,,,,,,,,,,,,,,,,,,,,,,0,17,17,11,,,,,,,,,,,,,,,,,,,,,,,,,,,,,,,,,,,,,,,,,,,,,,,,None,,,None, covert,"['c', 'o', 'v', 'e', 'r', 't', 'return']","[0.6709112001117319, 0.8225821999367326, 1.0069309000391513, 1.2145625001285225, 1.2790507001336664, 1.5110136000439525, 1.702826099935919]",,,,,,,,,,,,,,,,,,,,,,,,5,001,D,2023_Jan_30_1646,student_TT_local,2021.1.4,60.51587364164571,
,None,None,None,None,None,None,None,None,None,None,savant,induce,6.5,7.5,video&audio/sentence4_TT_3X.mp4,video&audio/mussel_TT_3X.mp4,cortex,mussel,None,,,,,,,,,,,,,,,,,,,,,,,,,,,0,18,18,21,,,,,,,,,,,,,,,,,,,,,,,,,,,,,,,,,,,,,,,,,,,,,,,,None,,,None, cortex,"['c', 'o', 'r', 't', 'e', 'x', 'return']","[0.7431252999231219, 0.9746528998948634, 1.1508598998188972, 1.3432820998132229, 1.423052999889478, 1.82375320000574, 1.9270138998981565]",,,,,,,,,,,,,,,,,,,,,,,,5,001,D,2023_Jan_30_1646,student_TT_local,2021.1.4,60.51587364164571,
,"This is Section 2.

In this section, your task will be the same as before - that is, to type the word you see on the screen AFTER the typing prompt. However, rather than just seeing the word before typing, you will also see a video of someone typing different words to what you will need to type at different speeds. 

Press 'enter/return' to go to the next page.","This is Section 4. 

In this section, your task will be the same as before - that is, to type the word you see on the screen after the typing prompt. You will see a video again, like in Section 2, only this time, the video will show someone the same word that you must type at different speeds. 

Press 'enter/return' to go to the next page.",video&audio/Example_AOMI_layout.png,1.6,0.6,afford,19.5,20.5,video&audio/amount_touch_edited.mp4,video&audio/afford_touch_edited.mp4,vanity,hinder,19.5,20.5,video&audio/Sentence1_touch_edited.mp4,video&audio/breach_touch_edited.mp4,matrix,breach,1 = AOMIgen,,,,,,,,,,,,,,,,,,,,,,,,,,,0,19,19,0,,,,,,,,,,,,,,,,,,,,,,,,,,,,,,,,,,,,,,,,,,,,,,,,None,,,None, matrix,"['m', 'a', 't', 'r', 'i', 'x', 'return']","[0.680123700061813, 0.8246194000821561, 1.0960473001468927, 1.1759928001556545, 1.3919147001579404, 1.7201744001358747, 1.992331000044942]",,,,,,,,,,,,,,,,,,,,,,,,5,001,D,2023_Jan_30_1646,student_TT_local,2021.1.4,60.51587364164571,
,None,None,None,None,None,None,None,None,None,None,parole,hamlet,19.5,20.5,video&audio/Sentence4_touch_edited.mp4,video&audio/shroud_touch_edited.mp4,jackal,shroud,None,,,,,,,,,,,,,,,,,,,,,,,,,,,0,20,20,9,,,,,,,,,,,,,,,,,,,,,,,,,,,,,,,,,,,,,,,,,,,,,,,,None,,,None, jackel,"['j', 'a', 'c', 'k', 'e', 'l', 'return']","[0.472800699993968, 0.6411604001186788, 0.9539320000912994, 1.1374798000324517, 1.3532062000595033, 1.6888298001140356, 2.0015601001214236]",,,,,,,,,,,,,,,,,,,,,,,,5,001,D,2023_Jan_30_1646,student_TT_local,2021.1.4,60.51587364164571,
,None,None,None,None,None,None,None,None,None,None,fodder,trench,6.5,7.5,video&audio/sentence4_TT_3X.mp4,video&audio/ethnic_TT_3X.mp4,botany,ethnic,None,,,,,,,,,,,,,,,,,,,,,,,,,,,0,21,21,27,,,,,,,,,,,,,,,,,,,,,,,,,,,,,,,,,,,,,,,,,,,,,,,,None,,,None, botsny,"['b', 'o', 't', 's', 'n', 'y', 'return']","[0.6816787999123335, 0.7938299998641014, 0.9378934998530895, 1.8106443998403847, 1.986467899987474, 2.257885199971497, 2.562197499908507]",,,,,,,,,,,,,,,,,,,,,,,,5,001,D,2023_Jan_30_1646,student_TT_local,2021.1.4,60.51587364164571,
,None,None,None,None,None,None,None,None,None,None,sonnet,hearth,19.5,20.5,video&audio/Sentence3_touch_edited.mp4,video&audio/herbal_touch_edited.mp4,hippie,herbal,None,,,,,,,,,,,,,,,,,,,,,,,,,,,0,22,22,14,,,,,,,,,,,,,,,,,,,,,,,,,,,,,,,,,,,,,,,,,,,,,,,,None,,,None, hippie,"['h', 'i', 'p', 'p', 'o', 'e', 'backspace', 'backspace', 'i', 'e', 'return']","[0.48620190005749464, 0.6547890999354422, 0.9024777000304312, 1.0227198000065982, 1.2862794001121074, 1.5752574000507593, 2.086369799915701, 2.20702450000681, 2.647203000029549, 2.7596197999082506, 2.9023661999963224]",,,,,,,,,,,,,,,,,,,,,,,,5,001,D,2023_Jan_30_1646,student_TT_local,2021.1.4,60.51587364164571,
,None,None,None,None,None,None,None,None,None,None,goblet,befall,19.5,20.5,video&audio/Sentence3_touch_edited.mp4,video&audio/ration_touch_edited.mp4,solemn,ration,None,,,,,,,,,,,,,,,,,,,,,,,,,,,0,23,23,8,,,,,,,,,,,,,,,,,,,,,,,,,,,,,,,,,,,,,,,,,,,,,,,,None,,,None, solemn,"['s', 'o', 'l', 'e', 'm', 'n', 'return']","[0.5272579998709261, 0.7033853000029922, 0.9342569999862462, 1.8389812998939306, 1.9982936000451446, 2.1822315000463277, 2.4706115999724716]",,,,,,,,,,,,,,,,,,,,,,,,5,001,D,2023_Jan_30_1646,student_TT_local,2021.1.4,60.51587364164571,
,None,None,None,None,None,None,None,None,None,None,revolt,joiner,19.5,20.5,video&audio/Sentence6_touch_edited.mp4,video&audio/apathy_touch_edited.mp4,virile,apathy,None,,,,,,,,,,,,,,,,,,,,,,,,,,,0,24,24,5,,,,,,,,,,,,,,,,,,,,,,,,,,,,,,,,,,,,,,,,,,,,,,,,None,,,None, virile,"['v', 'i', 'r', 'i', 'l', 'e', 'return']","[0.8006015999708325, 0.96781269996427, 1.1198412999510765, 1.216282800072804, 1.4238638000097126, 1.5520798000507057, 1.9354763000737876]",,,,,,,,,,,,,,,,,,,,,,,,5,001,D,2023_Jan_30_1646,student_TT_local,2021.1.4,60.51587364164571,
,None,None,None,None,None,None,None,None,None,None,murmur,cobble,6.5,7.5,video&audio/sentence2_TT_3X.mp4,video&audio/export_TT_3X.mp4,cervix,export,None,,,,,,,,,,,,,,,,,,,,,,,,,,,0,25,25,19,,,,,,,,,,,,,,,,,,,,,,,,,,,,,,,,,,,,,,,,,,,,,,,,None,,,None, cervix,"['c', 'e', 'r', 'v', 'i', 'x', 'return']","[0.6420247999485582, 0.8266213999595493, 0.8668494999874383, 1.2103392998687923, 1.514128099894151, 1.6184324999339879, 2.002897899830714]",,,,,,,,,,,,,,,,,,,,,,,,5,001,D,2023_Jan_30_1646,student_TT_local,2021.1.4,60.51587364164571,
,"Remember to type as QUICKLY and ACCURATELY as possible after the 'get ready' prompt.

Ask the experimenter any questions now. Please put on the headphones.

You will get one practice trial. Press 'enter/return' when you are ready to start the practice.","Remember to type as QUICKLY and ACCURATELY as you can after the 'get ready' prompt.

Ask the experimenter any questions now. Please put on the headphones.

You will get one practice trial. Press 'enter/return' when you are ready to start the practice.",video&audio/Example_AOMI_total.png,1.8,0.7,None,None,None,None,None,jargon,oppose,19.5,20.5,video&audio/Sentence3_touch_edited.mp4,video&audio/ghetto_touch_edited.mp4,frugal,ghetto,None,,,,,,,,,,,,,,,,,,,,,,,,,,,0,26,26,2,,,,,,,,,,,,,,,,,,,,,,,,,,,,,,,,,,,,,,,,,,,,,,,,None,,,None, frugal,"['f', 'r', 'u', 'a', 'l', 'return']","[0.7997149000875652, 0.9264633001293987, 1.2387155001051724, 1.5667004000861198, 1.7347673000767827, 2.1264535000082105]",,,,,,,,,,,,,,,,,,,,,,,,5,001,D,2023_Jan_30_1646,student_TT_local,2021.1.4,60.51587364164571,
,None,None,None,None,None,None,None,None,None,None,novice,primal,19.5,20.5,video&audio/Sentence5_touch_edited.mp4,video&audio/entail_touch_edited.mp4,parcel,entail,None,,,,,,,,,,,,,,,,,,,,,,,,,,,0,27,27,4,,,,,,,,,,,,,,,,,,,,,,,,,,,,,,,,,,,,,,,,,,,,,,,,None,,,None, parcel,"['p', 'a', 'r', 'c', 'e', 'l', 'return']","[0.5172223998233676, 0.6773418998345733, 1.045606100000441, 1.317232099827379, 1.477774899918586, 1.588968399912119, 1.9651780999265611]",,,,,,,,,,,,,,,,,,,,,,,,5,001,D,2023_Jan_30_1646,student_TT_local,2021.1.4,60.51587364164571,
,"While you watch the video, imagine yourself typing the word on the screen, like how you did in the imagery practice. While you watch the video and imagine this, rest your hands on your keyboard but DO NOT type until AFTER you see the typing prompt.

Press 'enter/return' to go to the next page.","While watching the video, imagine yourself typing the word on the screen, like how you did in the imagery practice. While you watch the video and imagine this, rest your hands on your keyboard but DO NOT type until AFTER you see the typing prompt.

Press 'enter/return' to go to the next page.",video&audio/Example_AOMI_imagine.png,1.6,1,butter,6.5,7.5,video&audio/amount_TT_3X.mp4,video&audio/butter_TT_3X.mp4,plight,metric,19.5,20.5,video&audio/Sentence2_touch_edited.mp4,video&audio/eatery_touch_edited.mp4,ascend,eatery,2 = AOMIspec,,,,,,,,,,,,,,,,,,,,,,,,,,,0,28,28,1,,,,,,,,,,,,,,,,,,,,,,,,,,,,,,,,,,,,,,,,,,,,,,,,None,,,None, ascend,"['a', 's', 'c', 'e', 'n', 'd', 'return']","[0.8456866000778973, 0.9413982999976724, 1.2868021000176668, 1.405835899990052, 1.74147820007056, 1.8459847001358867, 2.149784700013697]",,,,,,,,,,,,,,,,,,,,,,,,5,001,D,2023_Jan_30_1646,student_TT_local,2021.1.4,60.51587364164571,
,None,None,None,None,None,None,None,None,None,None,musket,meddle,6.5,7.5,video&audio/sentence2_TT_3X.mp4,video&audio/divert_TT_3X.mp4,kipper,divert,None,,,,,,,,,,,,,,,,,,,,,,,,,,,0,29,29,25,,,,,,,,,,,,,,,,,,,,,,,,,,,,,,,,,,,,,,,,,,,,,,,,None,,,None, kipper,"['k', 'i', 'p', 'p', 'e', 'r', 'return']","[0.6446758999954909, 0.8364075000863522, 1.6840680001769215, 1.812540000071749, 1.972924100002274, 2.052193700103089, 2.2766341001261026]",,,,,,,,,,,,,,,,,,,,,,,,5,001,D,2023_Jan_30_1646,student_TT_local,2021.1.4,60.51587364164571,
,,,,,,,,,,,,,,,,,,,,typingRatingScale.png,"How would you rate your typing performance in the previous section?

Press a number on your keyboard according to the rating scale below to give your answer. Your first answer will be accepted.",,,,,,,,,,,,,,,,,,,,,,,,,,,,,0,0,0,0,,,,,,,,,,,,,,,,,,,,,,,,,,,,,,,,,,,,,,,,,,,,,,,,,,,['3'],[3.922264799941331],,,,,,,,,,,,,,,,,,,,,,5,001,D,2023_Jan_30_1646,student_TT_local,2021.1.4,60.51587364164571,
,,,,,,,,,,,,,,,,,,,,visualImageryScale.png,"While imagining yourself typing, how clear was your visual image?

Press a number on your keyboard according to the rating scale below to give your answer. Your first answer will be accepted.",,,,,,,,,,,,,,,,,,,,,,,,,,,,,0,1,1,1,,,,,,,,,,,,,,,,,,,,,,,,,,,,,,,,,,,,,,,,,,,,,,,,,,,['2'],[6.071070899954066],,,,,,,,,,,,,,,,,,,,,,5,001,D,2023_Jan_30_1646,student_TT_local,2021.1.4,60.51587364164571,
,,,,,,,,,,,,,,,,,,,,kinestheticImageryScale.png,"While imagining yourself typing, how intense were the sensations associated with the imagined movement?

Press a number on your keyboard according to the rating scale below to give your answer. Your first answer will be accepted.",,,,,,,,,,,,,,,,,,,,,,,,,,,,,0,2,2,2,,,,,,,,,,,,,,,,,,,,,,,,,,,,,,,,,,,,,,,,,,,,,,,,,,,['4'],[6.10570970014669],,,,,,,,,,,,,,,,,,,,,,5,001,D,2023_Jan_30_1646,student_TT_local,2021.1.4,60.51587364164571,
,None,None,None,None,None,None,None,None,None,None,novice,primal,19.5,20.5,video&audio/Sentence5_touch_edited.mp4,video&audio/entail_touch_edited.mp4,parcel,entail,None,,,,,,,,,,,,,,,,,,,,,,,,,,,,,,,,,,,,,,,,,,,0,0,0,4,,,,,,,,,,,,,,,,,,,,,,,,,,,,,,,,,,,,,,,,,2887.700678499881,2894.21063779993,None, butter,"['b', 'u', 'u', 't', 'backspace', 'backspace', 't', 't', 'e', 'r', 'return']","[0.7812191999983042, 0.9739659000188112, 1.1332149000372738, 1.2453447999432683, 2.0696574999019504, 2.189545099856332, 2.2933952999301255, 2.445141499862075, 2.549464999930933, 2.6130695999599993, 2.9022508999332786]",2950.684730199864,2970.2045869999565,None, primal,"['p', 'r', 'i', 'm', 'a', 'l', 'return']","[0.7613995999563485, 0.89008569996804, 1.0655976999551058, 1.2574128000997007, 1.450020199874416, 1.5942929999437183, 1.9295729999430478]",,,,,,,,,,5,001,D,2023_Jan_30_1646,student_TT_local,2021.1.4,60.51587364164571,
,None,None,None,None,None,None,None,None,None,None,quarry,septic,19.5,20.5,video&audio/Sentence2_touch_edited.mp4,video&audio/innate_touch_edited.mp4,neural,innate,None,,,,,,,,,,,,,,,,,,,,,,,,,,,,,,,,,,,,,,,,,,,0,1,1,13,,,,,,,,,,,,,,,,,,,,,,,,,,,,,,,,,,,,,,,,,,,,,,,2973.1749958000146,2992.674491300015,None, septic,"['s', 'e', 'p', 't', 'i', 'c', 'return']","[0.4202882000245154, 0.8043927999678999, 0.9163955999538302, 1.0921789000276476, 1.3323490999173373, 1.4609729000367224, 1.8041674999985844]",,,,,,,,,,5,001,D,2023_Jan_30_1646,student_TT_local,2021.1.4,60.51587364164571,
,None,None,None,None,None,None,None,None,None,None,murmur,cobble,6.5,7.5,video&audio/sentence2_TT_3X.mp4,video&audio/export_TT_3X.mp4,cervix,export,None,,,,,,,,,,,,,,,,,,,,,,,,,,,,,,,,,,,,,,,,,,,0,2,2,19,,,,,,,,,,,,,,,,,,,,,,,,,,,,,,,,,,,,,,,,,,,,,,,2995.5299700999167,3002.047111199936,None, cobble,"['c', 'o', 'b', 'b', 'l', 'e', 'return']","[0.8111215000972152, 0.9947392998728901, 1.1951176999136806, 1.3067838998977095, 1.4511207998730242, 1.914539400022477, 2.643041499890387]",,,,,,,,,,5,001,D,2023_Jan_30_1646,student_TT_local,2021.1.4,60.51587364164571,
,None,None,None,None,None,None,None,None,None,None,mirage,shrewd,19.5,20.5,video&audio/Sentence1_touch_edited.mp4,video&audio/revoke_touch_edited.mp4,malady,revoke,None,,,,,,,,,,,,,,,,,,,,,,,,,,,,,,,,,,,,,,,,,,,0,3,3,6,,,,,,,,,,,,,,,,,,,,,,,,,,,,,,,,,,,,,,,,,,,,,,,3005.721650399966,3025.2236043000594,None, shrewd,"['s', 'h', 'r', 'e', 'w', 'd', 'return']","[0.7051142998971045, 0.816346500068903, 1.0726952999830246, 1.1847427999600768, 1.2725672000087798, 1.552804599981755, 2.025345099857077]",,,,,,,,,,5,001,D,2023_Jan_30_1646,student_TT_local,2021.1.4,60.51587364164571,
,None,None,None,None,None,None,None,None,None,None,coerce,clergy,6.5,7.5,video&audio/sentence6_TT_3X.mp4,video&audio/portal_TT_3X.mp4,ritual,portal,None,,,,,,,,,,,,,,,,,,,,,,,,,,,,,,,,,,,,,,,,,,,0,4,4,17,,,,,,,,,,,,,,,,,,,,,,,,,,,,,,,,,,,,,,,,,,,,,,,3028.277683699969,3034.784308400005,None, clergy,"['s', 'h', 'c', 'backspace', 'backspace', 'backspace', 'c', 'l', 'e', 'r', 'g', 'y', 'return']","[0.38990349997766316, 0.5021182999480516, 1.301911799935624, 1.7345551000908017, 2.0140970998909324, 2.157674100017175, 2.453949199989438, 2.7342274999246, 3.2536836999934167, 3.3341256000567228, 3.6300027000252157, 3.7976734000258148, 4.101776900002733]",,,,,,,,,,5,001,D,2023_Jan_30_1646,student_TT_local,2021.1.4,60.51587364164571,
,None,None,None,None,None,None,None,None,None,None,brazen,fungal,6.5,7.5,video&audio/sentence5_TT_3X.mp4,video&audio/mucous_TT_3X.mp4,subtle,mucous,None,,,,,,,,,,,,,,,,,,,,,,,,,,,,,,,,,,,,,,,,,,,0,5,5,22,,,,,,,,,,,,,,,,,,,,,,,,,,,,,,,,,,,,,,,,,,,,,,,3039.941616700031,3046.45069149998,None, fungal,"['f', 'u', 'n', 'g', 'a', 'l', 'return']","[0.8165268001612276, 0.9616721000056714, 1.0570165000390261, 1.2328099999576807, 1.3616792999673635, 1.4887729999609292, 2.121080999961123]",,,,,,,,,,5,001,D,2023_Jan_30_1646,student_TT_local,2021.1.4,60.51587364164571,
,None,None,None,None,None,None,None,None,None,None,revolt,joiner,19.5,20.5,video&audio/Sentence6_touch_edited.mp4,video&audio/apathy_touch_edited.mp4,virile,apathy,None,,,,,,,,,,,,,,,,,,,,,,,,,,,,,,,,,,,,,,,,,,,0,6,6,5,,,,,,,,,,,,,,,,,,,,,,,,,,,,,,,,,,,,,,,,,,,,,,,3049.607198700076,3069.119752299972,None, joiner,"['j', 'p', 'i', 'backspace', 'backspace', 'o', 'i', 'n', 'e', 'r', 'return']","[0.701742600183934, 0.8682003000285476, 1.0763825001195073, 1.9321997000370175, 2.4926289999857545, 2.7964477001223713, 2.916513100033626, 3.0926737000700086, 3.22047120006755, 3.2842835001647472, 3.5730836000293493]",,,,,,,,,,5,001,D,2023_Jan_30_1646,student_TT_local,2021.1.4,60.51587364164571,
,None,None,None,None,None,None,None,None,None,None,fodder,trench,6.5,7.5,video&audio/sentence4_TT_3X.mp4,video&audio/ethnic_TT_3X.mp4,botany,ethnic,None,,,,,,,,,,,,,,,,,,,,,,,,,,,,,,,,,,,,,,,,,,,0,7,7,27,,,,,,,,,,,,,,,,,,,,,,,,,,,,,,,,,,,,,,,,,,,,,,,3073.728090999881,3080.2441390999593,None, trench,"['t', 'r', 'e', 'n', 'c', 'h', 'bracketright', 'return']","[0.9782664000522345, 1.042925100075081, 1.5786226000636816, 1.7466575000435114, 2.2348446000833064, 2.3142057000659406, 2.7065872999373823, 2.7149020999204367]",,,,,,,,,,5,001,D,2023_Jan_30_1646,student_TT_local,2021.1.4,60.51587364164571,
,None,None,None,None,None,None,None,None,None,None,sonnet,hearth,19.5,20.5,video&audio/Sentence3_touch_edited.mp4,video&audio/herbal_touch_edited.mp4,hippie,herbal,None,,,,,,,,,,,,,,,,,,,,,,,,,,,,,,,,,,,,,,,,,,,0,8,8,14,,,,,,,,,,,,,,,,,,,,,,,,,,,,,,,,,,,,,,,,,,,,,,,3083.97802020004,3103.485507099889,None, hearth,"['h', 'e', 'a', 'r', 't', 'h', 'return']","[0.7293639001436532, 0.8494168999604881, 1.0423014999832958, 1.2099140000063926, 1.481603099964559, 1.553382399957627, 2.3219059000257403]",,,,,,,,,,5,001,D,2023_Jan_30_1646,student_TT_local,2021.1.4,60.51587364164571,
,None,None,None,None,None,None,None,None,None,None,convoy,output,6.5,7.5,video&audio/sentence1_TT_3X.mp4,video&audio/uphold_TT_3X.mp4,debtor,uphold,None,,,,,,,,,,,,,,,,,,,,,,,,,,,,,,,,,,,,,,,,,,,0,9,9,18,,,,,,,,,,,,,,,,,,,,,,,,,,,,,,,,,,,,,,,,,,,,,,,3106.8556695999578,3113.380075099878,None, output,"['o', 'u', 't', 'p', 'u', 't', 'return']","[0.9861967999022454, 1.090556399896741, 1.3462045998312533, 1.5701402998529375, 1.8671899000182748, 2.042581900022924, 2.3227869998663664]",,,,,,,,,,5,001,D,2023_Jan_30_1646,student_TT_local,2021.1.4,60.51587364164571,
,None,None,None,None,None,None,None,None,None,None,savant,induce,6.5,7.5,video&audio/sentence4_TT_3X.mp4,video&audio/mussel_TT_3X.mp4,cortex,mussel,None,,,,,,,,,,,,,,,,,,,,,,,,,,,,,,,,,,,,,,,,,,,0,10,10,21,,,,,,,,,,,,,,,,,,,,,,,,,,,,,,,,,,,,,,,,,,,,,,,3157.0587754999287,3163.5668259998783,None, induce,"['i', 'n', 'd', 'u', 'c', 'e', 'return']","[0.8017955999821424, 0.929739800048992, 1.282886599889025, 1.4901791999582201, 1.665860999841243, 1.7780245998874307, 2.017760199960321]",,,,,,,,,,5,001,D,2023_Jan_30_1646,student_TT_local,2021.1.4,60.51587364164571,
,None,None,None,None,None,None,None,None,None,None,deduct,jailer,6.5,7.5,video&audio/sentence5_TT_3X.mp4,video&audio/nettle_TT_3X.mp4,plasma,nettle,None,,,,,,,,,,,,,,,,,,,,,,,,,,,,,,,,,,,,,,,,,,,0,11,11,16,,,,,,,,,,,,,,,,,,,,,,,,,,,,,,,,,,,,,,,,,,,,,,,3166.6197543998715,3173.1389029999264,None, jailer,"['j', 'a', 'i', 'l', 'e', 'e', 'r', 'backspace', 'backspace', 'r', 'return']","[0.5216496998909861, 0.6819541999138892, 0.9215114000253379, 1.1217041998170316, 1.2411318998783827, 1.4092520999256521, 1.4411982998717576, 2.06554719991982, 2.2011056998744607, 2.3213586998172104, 2.4096756000071764]",,,,,,,,,,5,001,D,2023_Jan_30_1646,student_TT_local,2021.1.4,60.51587364164571,
,"While you watch the video, imagine yourself typing the word on the screen, like how you did in the imagery practice. While you watch the video and imagine this, rest your hands on your keyboard but DO NOT type until AFTER you see the typing prompt.

Press 'enter/return' to go to the next page.","While watching the video, imagine yourself typing the word on the screen, like how you did in the imagery practice. While you watch the video and imagine this, rest your hands on your keyboard but DO NOT type until AFTER you see the typing prompt.

Press 'enter/return' to go to the next page.",video&audio/Example_AOMI_imagine.png,1.6,1,butter,6.5,7.5,video&audio/amount_TT_3X.mp4,video&audio/butter_TT_3X.mp4,plight,metric,19.5,20.5,video&audio/Sentence2_touch_edited.mp4,video&audio/eatery_touch_edited.mp4,ascend,eatery,2 = AOMIspec,,,,,,,,,,,,,,,,,,,,,,,,,,,,,,,,,,,,,,,,,,,0,12,12,1,,,,,,,,,,,,,,,,,,,,,,,,,,,,,,,,,,,,,,,,,,,,,,,3176.5713394000195,3196.078119599959,None, metric,"['m', 'e', 't', 'r', 'i', 'c', 'return']","[0.5738164000213146, 0.8215187999885529, 0.9663472000975162, 1.3416862001176924, 1.5416549001820385, 1.6938853000756353, 2.0056280000135303]",,,,,,,,,,5,001,D,2023_Jan_30_1646,student_TT_local,2021.1.4,60.51587364164571,
,None,None,None,None,None,None,None,None,None,None,upkeep,parish,6.5,7.5,video&audio/sentence5_TT_3X.mp4,video&audio/gullet_TT_3X.mp4,picket,gullet,None,,,,,,,,,,,,,,,,,,,,,,,,,,,,,,,,,,,,,,,,,,,0,13,13,28,,,,,,,,,,,,,,,,,,,,,,,,,,,,,,,,,,,,,,,,,,,,,,,3199.1150442999788,3205.6275746000465,None, parish,"['p', 'a', 'r', 'i', 's', 'h', 'return']","[0.3870496000163257, 0.4989396999590099, 0.7558941999450326, 0.9870325000956655, 1.1473658999893814, 1.219473599921912, 1.6191658999305218]",,,,,,,,,,5,001,D,2023_Jan_30_1646,student_TT_local,2021.1.4,60.51587364164571,
,None,None,None,None,None,None,None,None,None,None,infirm,oblige,19.5,20.5,video&audio/Sentence4_touch_edited.mp4,video&audio/mystic_touch_edited.mp4,pulpit,mystic,None,,,,,,,,,,,,,,,,,,,,,,,,,,,,,,,,,,,,,,,,,,,0,14,14,3,,,,,,,,,,,,,,,,,,,,,,,,,,,,,,,,,,,,,,,,,,,,,,,3208.284412899986,3227.8084437998477,None, oblige,"['o', 'b', 'l', 'i', 'g', 'e', 'return']","[0.4900742000900209, 0.7380252999719232, 0.842038800008595, 1.0583373999688774, 1.2984319000970572, 1.4499623998999596, 1.7380413000937551]",,,,,,,,,,5,001,D,2023_Jan_30_1646,student_TT_local,2021.1.4,60.51587364164571,
,None,None,None,None,None,None,None,None,None,None,potent,tandem,6.5,7.5,video&audio/sentence4_TT_3X.mp4,video&audio/origin_TT_3X.mp4,falter,origin,None,,,,,,,,,,,,,,,,,,,,,,,,,,,,,,,,,,,,,,,,,,,0,15,15,15,,,,,,,,,,,,,,,,,,,,,,,,,,,,,,,,,,,,,,,,,,,,,,,3230.5652550999075,3237.0776378999,None, tandem,"['t', 's', 'backspace', 'a', 'n', 'd', 'e', 'm', 'return']","[0.729651799891144, 0.8253705999813974, 1.969352399930358, 2.161397400079295, 2.2974553001113236, 2.5301757999695837, 2.6011956001166254, 2.929046700010076, 3.257183500099927]",,,,,,,,,,5,001,D,2023_Jan_30_1646,student_TT_local,2021.1.4,60.51587364164571,
,None,None,None,None,None,None,None,None,None,None,pursue,caviar,6.5,7.5,video&audio/sentence3_TT_3X.mp4,video&audio/shrill_TT_3X.mp4,piston,shrill,None,,,,,,,,,,,,,,,,,,,,,,,,,,,,,,,,,,,,,,,,,,,0,16,16,20,,,,,,,,,,,,,,,,,,,,,,,,,,,,,,,,,,,,,,,,,,,,,,,3241.3697365999687,3247.878407999873,None, caviar,"['c', 'a', 'v', 'i', 'a', 'r', 'return']","[0.9030961999669671, 0.9912819999735802, 1.2632943000644445, 1.3588407000061125, 1.4787455999758095, 1.6469739999156445, 1.8958858998958021]",,,,,,,,,,5,001,D,2023_Jan_30_1646,student_TT_local,2021.1.4,60.51587364164571,
,None,None,None,None,None,None,None,None,None,None,manure,girdle,6.5,7.5,video&audio/sentence6_TT_3X.mp4,video&audio/linear_TT_3X.mp4,belfry,linear,None,,,,,,,,,,,,,,,,,,,,,,,,,,,,,,,,,,,,,,,,,,,0,17,17,23,,,,,,,,,,,,,,,,,,,,,,,,,,,,,,,,,,,,,,,,,,,,,,,3250.7998720000032,3257.312717099907,None, girdle,"['g', 'i', 'r', 'd', 'l', 'e', 'return']","[0.7854481001850218, 0.8886333000846207, 0.9537186999805272, 1.3609825000166893, 1.9536461001262069, 2.0405439999885857, 2.2575024000834674]",,,,,,,,,,5,001,D,2023_Jan_30_1646,student_TT_local,2021.1.4,60.51587364164571,
,None,None,None,None,None,None,None,None,None,None,sherry,zephyr,19.5,20.5,video&audio/Sentence5_touch_edited.mp4,video&audio/fusion_touch_edited.mp4,obsess,fusion,None,,,,,,,,,,,,,,,,,,,,,,,,,,,,,,,,,,,,,,,,,,,0,18,18,10,,,,,,,,,,,,,,,,,,,,,,,,,,,,,,,,,,,,,,,,,,,,,,,3260.604581899941,3280.109171099961,None, zephyr,"['z', 'e', 'p', 'h', 'y', 'r', 'return']","[0.49359950004145503, 0.8375429001171142, 1.197239400120452, 1.3411683000158519, 1.4850247001741081, 2.0693453000858426, 2.3096155000384897]",,,,,,,,,,5,001,D,2023_Jan_30_1646,student_TT_local,2021.1.4,60.51587364164571,
,None,None,None,None,None,None,None,None,None,None,critic,binder,19.5,20.5,video&audio/Sentence1_touch_edited.mp4,video&audio/tamper_touch_edited.mp4,confer,tamper,None,,,,,,,,,,,,,,,,,,,,,,,,,,,,,,,,,,,,,,,,,,,0,19,19,12,,,,,,,,,,,,,,,,,,,,,,,,,,,,,,,,,,,,,,,,,,,,,,,3283.4518083999865,3302.960161499912,None, binder,"['b', 'o', 'backspace', 'i', 'n', 'd', 'e', 'r', 'return']","[0.9353086999617517, 1.0867656997870654, 2.007178499829024, 2.343412399990484, 2.4311886997893453, 2.863016299903393, 3.031087099807337, 3.1115596999879926, 3.3828969998285174]",,,,,,,,,,5,001,D,2023_Jan_30_1646,student_TT_local,2021.1.4,60.51587364164571,
,None,None,None,None,None,None,None,None,None,None,goblet,befall,19.5,20.5,video&audio/Sentence3_touch_edited.mp4,video&audio/ration_touch_edited.mp4,solemn,ration,None,,,,,,,,,,,,,,,,,,,,,,,,,,,,,,,,,,,,,,,,,,,0,20,20,8,,,,,,,,,,,,,,,,,,,,,,,,,,,,,,,,,,,,,,,,,,,,,,,3359.3821630999446,3378.902649699943,None, brfsll,"['b', 'r', 'f', 's', 'l', 'l', 'return']","[0.6530575999058783, 0.7893898000475019, 1.0936731998808682, 1.1823309999890625, 1.4213932999409735, 1.565223400015384, 2.0210750999394804]",,,,,,,,,,5,001,D,2023_Jan_30_1646,student_TT_local,2021.1.4,60.51587364164571,
,None,None,None,None,None,None,None,None,None,None,musket,meddle,6.5,7.5,video&audio/sentence2_TT_3X.mp4,video&audio/divert_TT_3X.mp4,kipper,divert,None,,,,,,,,,,,,,,,,,,,,,,,,,,,,,,,,,,,,,,,,,,,0,21,21,25,,,,,,,,,,,,,,,,,,,,,,,,,,,,,,,,,,,,,,,,,,,,,,,3381.936675499892,3388.4374917999376,None, meddle,"['e', 'd', 'd', 'l', 'e', 'return']","[0.9294054000638425, 1.161231400212273, 1.2808013001922518, 1.3841685000807047, 1.4884856001008302, 1.744805800030008]",,,,,,,,,,5,001,D,2023_Jan_30_1646,student_TT_local,2021.1.4,60.51587364164571,
,None,None,None,None,None,None,None,None,None,None,satire,mangle,6.5,7.5,video&audio/sentence1_TT_3X.mp4,video&audio/warble_TT_3X.mp4,devise,warble,None,,,,,,,,,,,,,,,,,,,,,,,,,,,,,,,,,,,,,,,,,,,0,22,22,24,,,,,,,,,,,,,,,,,,,,,,,,,,,,,,,,,,,,,,,,,,,,,,,3391.2083486998454,3397.7337181998882,None, mangle,"['m', 'a', 'n', 'g', 'semicolon', 'e', 'backspace', 'backspace', 'l', 'e', 'return']","[0.7896394999697804, 0.8854259999934584, 0.9900821000337601, 1.2696337001398206, 1.3744977000169456, 1.429453100077808, 1.9098166001494974, 2.0457774000242352, 2.333627700107172, 2.4376161999534816, 2.605671799974516]",,,,,,,,,,5,001,D,2023_Jan_30_1646,student_TT_local,2021.1.4,60.51587364164571,
,"This is Section 2.

In this section, your task will be the same as before - that is, to type the word you see on the screen AFTER the typing prompt. However, rather than just seeing the word before typing, you will also see a video of someone typing different words to what you will need to type at different speeds. 

Press 'enter/return' to go to the next page.","This is Section 4. 

In this section, your task will be the same as before - that is, to type the word you see on the screen after the typing prompt. You will see a video again, like in Section 2, only this time, the video will show someone the same word that you must type at different speeds. 

Press 'enter/return' to go to the next page.",video&audio/Example_AOMI_layout.png,1.6,0.6,afford,19.5,20.5,video&audio/amount_touch_edited.mp4,video&audio/afford_touch_edited.mp4,vanity,hinder,19.5,20.5,video&audio/Sentence1_touch_edited.mp4,video&audio/breach_touch_edited.mp4,matrix,breach,1 = AOMIgen,,,,,,,,,,,,,,,,,,,,,,,,,,,,,,,,,,,,,,,,,,,0,23,23,0,,,,,,,,,,,,,,,,,,,,,,,,,,,,,,,,,,,,,,,,,,,,,,,3401.3646930998657,3420.871190099977,None, hinder,"['h', 'i', 'm', 'n', 'backspace', 'n', 'd', 'e', 'r', 'return']","[0.6811859998852015, 0.8896710998378694, 0.9451225998345762, 0.9535653998609632, 1.753875299822539, 2.0497291998472065, 2.1529805997852236, 2.314256199868396, 2.3779527998995036, 2.6011187999974936]",,,,,,,,,,5,001,D,2023_Jan_30_1646,student_TT_local,2021.1.4,60.51587364164571,
,"Remember to type as QUICKLY and ACCURATELY as possible after the 'get ready' prompt.

Ask the experimenter any questions now. Please put on the headphones.

You will get one practice trial. Press 'enter/return' when you are ready to start the practice.","Remember to type as QUICKLY and ACCURATELY as you can after the 'get ready' prompt.

Ask the experimenter any questions now. Please put on the headphones.

You will get one practice trial. Press 'enter/return' when you are ready to start the practice.",video&audio/Example_AOMI_total.png,1.8,0.7,None,None,None,None,None,jargon,oppose,19.5,20.5,video&audio/Sentence3_touch_edited.mp4,video&audio/ghetto_touch_edited.mp4,frugal,ghetto,None,,,,,,,,,,,,,,,,,,,,,,,,,,,,,,,,,,,,,,,,,,,0,24,24,2,,,,,,,,,,,,,,,,,,,,,,,,,,,,,,,,,,,,,,,,,,,,,,,3424.5248666999396,3444.037267500069,None, oppose,"['o', 'p', 'p', 'o', 's', 'e', 'return']","[0.6600230000913143, 0.8594017000868917, 1.0274964000564069, 1.252467199927196, 1.5711014000698924, 1.6598968000616878, 1.9716727999038994]",,,,,,,,,,5,001,D,2023_Jan_30_1646,student_TT_local,2021.1.4,60.51587364164571,
,None,None,None,None,None,None,None,None,None,None,strife,delude,19.5,20.5,video&audio/Sentence2_touch_edited.mp4,video&audio/galley_touch_edited.mp4,tariff,galley,None,,,,,,,,,,,,,,,,,,,,,,,,,,,,,,,,,,,,,,,,,,,0,25,25,7,,,,,,,,,,,,,,,,,,,,,,,,,,,,,,,,,,,,,,,,,,,,,,,3447.037875399925,3466.552602699958,None, delude,"['d', 'e', 'l', 'u', 'i', 'backspace', 'd', 'e', 'return']","[0.518249599961564, 0.7018734999001026, 1.0456039998680353, 1.2377155998256058, 1.253364000003785, 2.229429399827495, 2.3658474998082966, 2.5502119997981936, 2.7335030999965966]",,,,,,,,,,5,001,D,2023_Jan_30_1646,student_TT_local,2021.1.4,60.51587364164571,
,None,None,None,None,None,None,None,None,None,None,parole,hamlet,19.5,20.5,video&audio/Sentence4_touch_edited.mp4,video&audio/shroud_touch_edited.mp4,jackal,shroud,None,,,,,,,,,,,,,,,,,,,,,,,,,,,,,,,,,,,,,,,,,,,0,26,26,9,,,,,,,,,,,,,,,,,,,,,,,,,,,,,,,,,,,,,,,,,,,,,,,3470.3245512000285,3489.8403040999547,None, hamlet,"['h', 'a', 'm', 'l', 'e', 't', 'return']","[0.32508320012129843, 0.4619573000818491, 0.828531299950555, 1.0124155001249164, 1.1966079000849277, 1.292775500100106, 1.50085059995763]",,,,,,,,,,5,001,D,2023_Jan_30_1646,student_TT_local,2021.1.4,60.51587364164571,
,None,None,None,None,None,None,None,None,None,None,impose,feudal,6.5,7.5,video&audio/sentence3_TT_3X.mp4,video&audio/matron_TT_3X.mp4,subdue,matron,None,,,,,,,,,,,,,,,,,,,,,,,,,,,,,,,,,,,,,,,,,,,0,27,27,26,,,,,,,,,,,,,,,,,,,,,,,,,,,,,,,,,,,,,,,,,,,,,,,3492.367490499979,3498.8673117000144,None, feudal,"['f', 'e', 'u', 'd', 'a', 'l', 'return']","[1.0736064000520855, 1.169224699959159, 1.321688799886033, 1.537967799929902, 1.6654898999258876, 1.986092299921438, 2.3460844000801444]",,,,,,,,,,5,001,D,2023_Jan_30_1646,student_TT_local,2021.1.4,60.51587364164571,
,None,None,None,None,None,None,None,None,None,None,legion,campus,6.5,7.5,video&audio/sentence6_TT_3X.mp4,video&audio/allure_TT_3X.mp4,forage,allure,None,,,,,,,,,,,,,,,,,,,,,,,,,,,,,,,,,,,,,,,,,,,0,28,28,29,,,,,,,,,,,,,,,,,,,,,,,,,,,,,,,,,,,,,,,,,,,,,,,3502.2570366999134,3508.780540399952,None, campus,"['c', 'a', 'm', 'p', 'u', 's', 'return']","[0.8041310999542475, 0.8599676000885665, 1.0041569001041353, 1.2126388000324368, 1.4762726000044495, 1.7240319999400526, 2.0362007000949234]",,,,,,,,,,5,001,D,2023_Jan_30_1646,student_TT_local,2021.1.4,60.51587364164571,
,None,None,None,None,None,None,None,None,None,None,ordain,patent,19.5,20.5,video&audio/Sentence6_touch_edited.mp4,video&audio/defame_touch_edited.mp4,covert,defame,None,,,,,,,,,,,,,,,,,,,,,,,,,,,,,,,,,,,,,,,,,,,0,29,29,11,,,,,,,,,,,,,,,,,,,,,,,,,,,,,,,,,,,,,,,,,,,,,,,3511.837989700027,3531.3443398999516,None, patent,"['p', 'a', 't', 'e', 'n', 't', 'return']","[0.6402957998216152, 0.7678162998054177, 1.0636727998498827, 1.1529267998412251, 1.3202166999690235, 1.4722735998220742, 1.9133814999368042]",,,,,,,,,,5,001,D,2023_Jan_30_1646,student_TT_local,2021.1.4,60.51587364164571,
,,,,,,,,,,,,,,,,,,,,typingRatingScale.png,"How would you rate your typing performance in the previous section?

Press a number on your keyboard according to the rating scale below to give your answer. Your first answer will be accepted.",,,,,,,,,,,,,,,,,,,,,,,,,,,,,,,,,,,,,,,,,,,,,0,0,0,0,,,,,,,,,,,,,,,,,,,,,,,,,,,,,,,,,,,,,,,,,,,,,,,,,['4'],[3.7303510999772698],,,,,,,,5,001,D,2023_Jan_30_1646,student_TT_local,2021.1.4,60.51587364164571,
,,,,,,,,,,,,,,,,,,,,imageryCheckScale.png,"In the previous section did you imagine yourself typing?

Press a number on your keyboard according to the rating scale below to give your answer. Your first answer will be accepted.",,,,,,,,,,,,,,,,,,,,,,,,,,,,,,,,,,,,,,,,,,,,,0,1,1,1,,,,,,,,,,,,,,,,,,,,,,,,,,,,,,,,,,,,,,,,,,,,,,,,,['1'],[4.447902200045064],,,,,,,,5,001,D,2023_Jan_30_1646,student_TT_local,2021.1.4,60.51587364164571,
,None,None,None,None,None,None,None,None,None,None,manure,girdle,6.5,7.5,video&audio/sentence6_TT_3X.mp4,video&audio/linear_TT_3X.mp4,belfry,linear,None,,,,,,,,,,,,,,,,,,,,,,,,,,,,,,,,,,,,,,,,,,,,,,,,,,,,,,,,,,,0,0,0,23,,,,,,,,,,,,,,,,None,"['b', 'u', 't', 't', 'e', 'r', 'return']","[0.7062844999600202, 0.8817187000531703, 1.1776789999566972, 1.3145135999657214, 1.4657298000529408, 1.5298427999950945, 1.9144129001069814]",,,,,,,,,,,,,,,,,,,,,None,None, linear,"['l', 'i', 'n', 'e', 's', 'backspace', 'a', 'r', 'return']","[0.46164809982292354, 0.7325402998831123, 0.9413436998147517, 1.116769699845463, 1.3325705998577178, 1.980779399862513, 2.0848175999708474, 2.15726020000875, 2.3245701999403536]",,,5,001,D,2023_Jan_30_1646,student_TT_local,2021.1.4,60.51587364164571,
,None,None,None,None,None,None,None,None,None,None,infirm,oblige,19.5,20.5,video&audio/Sentence4_touch_edited.mp4,video&audio/mystic_touch_edited.mp4,pulpit,mystic,None,,,,,,,,,,,,,,,,,,,,,,,,,,,,,,,,,,,,,,,,,,,,,,,,,,,,,,,,,,,0,1,1,3,,,,,,,,,,,,,,,,None,,,,,,,,,,,,,,,,,,,,,,,,None, mystic,"['m', 'y', 's', 't', 'i', 'c', 'return']","[0.6347219999879599, 0.9467525999061763, 1.8664974998682737, 2.1306864998769015, 2.2828607000410557, 2.4667142999824136, 2.6827897999901325]",,,5,001,D,2023_Jan_30_1646,student_TT_local,2021.1.4,60.51587364164571,
,None,None,None,None,None,None,None,None,None,None,sherry,zephyr,19.5,20.5,video&audio/Sentence5_touch_edited.mp4,video&audio/fusion_touch_edited.mp4,obsess,fusion,None,,,,,,,,,,,,,,,,,,,,,,,,,,,,,,,,,,,,,,,,,,,,,,,,,,,,,,,,,,,0,2,2,10,,,,,,,,,,,,,,,,None,,,,,,,,,,,,,,,,,,,,,,,,None, fusion,"['f', 'u', 's', 'i', 'o', 'n', 'return']","[0.48970550019294024, 0.9298235001042485, 1.793668800033629, 1.9055004001129419, 1.9868916000705212, 2.1135550001636147, 2.5623634001240134]",,,5,001,D,2023_Jan_30_1646,student_TT_local,2021.1.4,60.51587364164571,
,None,None,None,None,None,None,None,None,None,None,legion,campus,6.5,7.5,video&audio/sentence6_TT_3X.mp4,video&audio/allure_TT_3X.mp4,forage,allure,None,,,,,,,,,,,,,,,,,,,,,,,,,,,,,,,,,,,,,,,,,,,,,,,,,,,,,,,,,,,0,3,3,29,,,,,,,,,,,,,,,,None,,,,,,,,,,,,,,,,,,,,,,,,None, allure,"['a', 'semicolon', 'semicolon', 'u', 'r', 'e', 'backspace', 'backspace', 'backspace', 'backspace', 'backspace', 'l', 'l', 'u', 'r', 'e', 'return']","[0.4353196998126805, 0.779137299861759, 0.9548390998970717, 1.2675479999743402, 1.4042953997850418, 1.5149840000085533, 2.1559746998827904, 2.323019800009206, 2.4593795998953283, 2.6108348998241127, 2.9311597999185324, 3.355108299991116, 3.467405099887401, 3.7394411999266595, 3.8429025998339057, 3.907113399822265, 4.083155599888414]",,,5,001,D,2023_Jan_30_1646,student_TT_local,2021.1.4,60.51587364164571,
,None,None,None,None,None,None,None,None,None,None,pursue,caviar,6.5,7.5,video&audio/sentence3_TT_3X.mp4,video&audio/shrill_TT_3X.mp4,piston,shrill,None,,,,,,,,,,,,,,,,,,,,,,,,,,,,,,,,,,,,,,,,,,,,,,,,,,,,,,,,,,,0,4,4,20,,,,,,,,,,,,,,,,None,,,,,,,,,,,,,,,,,,,,,,,,None, shrill,"['s', 'h', 'r', 'i', 'l', 'l', 'return']","[0.5691857000347227, 0.8488318000454456, 1.1448318001348525, 1.3681030999869108, 1.8975229000207037, 2.04917800007388, 2.4485806000884622]",,,5,001,D,2023_Jan_30_1646,student_TT_local,2021.1.4,60.51587364164571,
,"This is Section 2.

In this section, your task will be the same as before - that is, to type the word you see on the screen AFTER the typing prompt. However, rather than just seeing the word before typing, you will also see a video of someone typing different words to what you will need to type at different speeds. 

Press 'enter/return' to go to the next page.","This is Section 4. 

In this section, your task will be the same as before - that is, to type the word you see on the screen after the typing prompt. You will see a video again, like in Section 2, only this time, the video will show someone the same word that you must type at different speeds. 

Press 'enter/return' to go to the next page.",video&audio/Example_AOMI_layout.png,1.6,0.6,afford,19.5,20.5,video&audio/amount_touch_edited.mp4,video&audio/afford_touch_edited.mp4,vanity,hinder,19.5,20.5,video&audio/Sentence1_touch_edited.mp4,video&audio/breach_touch_edited.mp4,matrix,breach,1 = AOMIgen,,,,,,,,,,,,,,,,,,,,,,,,,,,,,,,,,,,,,,,,,,,,,,,,,,,,,,,,,,,0,5,5,0,,,,,,,,,,,,,,,,None,,,,,,,,,,,,,,,,,,,,,,,,None, breach,"['b', 'r', 'e', 'a', 'c', 'h', 'return']","[0.639720399864018, 0.7915215999819338, 0.8637383999302983, 1.2002745000645518, 1.6161809000186622, 1.7197523000650108, 2.3358233000617474]",,,5,001,D,2023_Jan_30_1646,student_TT_local,2021.1.4,60.51587364164571,
,None,None,None,None,None,None,None,None,None,None,ordain,patent,19.5,20.5,video&audio/Sentence6_touch_edited.mp4,video&audio/defame_touch_edited.mp4,covert,defame,None,,,,,,,,,,,,,,,,,,,,,,,,,,,,,,,,,,,,,,,,,,,,,,,,,,,,,,,,,,,0,6,6,11,,,,,,,,,,,,,,,,None,,,,,,,,,,,,,,,,,,,,,,,,None, defame,"['f', 'e', 'backspace', 'backspace', 'd', 'e', 'f', 'a', 'm', 'e', 'return']","[0.4790918999351561, 0.6310252998955548, 1.623987999977544, 1.7913581000175327, 2.087432699976489, 2.1913762998301536, 2.3748333998955786, 2.7588161998428404, 2.9511872997973114, 3.0950295999646187, 3.303934499854222]",,,5,001,D,2023_Jan_30_1646,student_TT_local,2021.1.4,60.51587364164571,
,None,None,None,None,None,None,None,None,None,None,novice,primal,19.5,20.5,video&audio/Sentence5_touch_edited.mp4,video&audio/entail_touch_edited.mp4,parcel,entail,None,,,,,,,,,,,,,,,,,,,,,,,,,,,,,,,,,,,,,,,,,,,,,,,,,,,,,,,,,,,0,7,7,4,,,,,,,,,,,,,,,,None,,,,,,,,,,,,,,,,,,,,,,,,None, entail,"['e', 'n', 't', 'a', 'i', 'l', 'return']","[0.4868028999771923, 0.7026184001006186, 0.8873350000940263, 1.047274800017476, 1.334735100157559, 1.4633472000714391, 2.095198600087315]",,,5,001,D,2023_Jan_30_1646,student_TT_local,2021.1.4,60.51587364164571,
,None,None,None,None,None,None,None,None,None,None,fodder,trench,6.5,7.5,video&audio/sentence4_TT_3X.mp4,video&audio/ethnic_TT_3X.mp4,botany,ethnic,None,,,,,,,,,,,,,,,,,,,,,,,,,,,,,,,,,,,,,,,,,,,,,,,,,,,,,,,,,,,0,8,8,27,,,,,,,,,,,,,,,,None,,,,,,,,,,,,,,,,,,,,,,,,None, ethnic,"['e', 't', 'h', 'n', 'i', 'c', 'return']","[0.7490012000780553, 1.0213610001374036, 1.1887344000861049, 1.4212810001336038, 1.5816963999532163, 1.7646987000480294, 2.0368717999663204]",,,5,001,D,2023_Jan_30_1646,student_TT_local,2021.1.4,60.51587364164571,
,None,None,None,None,None,None,None,None,None,None,quarry,septic,19.5,20.5,video&audio/Sentence2_touch_edited.mp4,video&audio/innate_touch_edited.mp4,neural,innate,None,,,,,,,,,,,,,,,,,,,,,,,,,,,,,,,,,,,,,,,,,,,,,,,,,,,,,,,,,,,0,9,9,13,,,,,,,,,,,,,,,,None,,,,,,,,,,,,,,,,,,,,,,,,None, innate,"['i', 'n', 'n', 'a', 't', 'e', 'return']","[0.42145319981500506, 0.7335804000031203, 0.8617960999254137, 1.0462722999509424, 1.4137143997941166, 1.477356299990788, 1.6862931000068784]",,,5,001,D,2023_Jan_30_1646,student_TT_local,2021.1.4,60.51587364164571,
,None,None,None,None,None,None,None,None,None,None,parole,hamlet,19.5,20.5,video&audio/Sentence4_touch_edited.mp4,video&audio/shroud_touch_edited.mp4,jackal,shroud,None,,,,,,,,,,,,,,,,,,,,,,,,,,,,,,,,,,,,,,,,,,,,,,,,,,,,,,,,,,,0,10,10,9,,,,,,,,,,,,,,,,None,,,,,,,,,,,,,,,,,,,,,,,,None, shroud,"['s', 'h', 'r', 'o', 'u', 'd', 'return']","[0.43004620005376637, 0.7011597000528127, 0.9336989999283105, 1.1812601001001894, 1.4287648999597877, 1.6450189999304712, 1.9170548999682069]",,,5,001,D,2023_Jan_30_1646,student_TT_local,2021.1.4,60.51587364164571,
,None,None,None,None,None,None,None,None,None,None,coerce,clergy,6.5,7.5,video&audio/sentence6_TT_3X.mp4,video&audio/portal_TT_3X.mp4,ritual,portal,None,,,,,,,,,,,,,,,,,,,,,,,,,,,,,,,,,,,,,,,,,,,,,,,,,,,,,,,,,,,0,11,11,17,,,,,,,,,,,,,,,,None,,,,,,,,,,,,,,,,,,,,,,,,None, portal,"['p', 'o', 'i', 'backspace', 'r', 't', 'a', 'l', 'return']","[0.7855622000060976, 0.9049178001005203, 0.9125418001785874, 1.5605186000466347, 1.7452086000703275, 1.8650339001324028, 2.080478999996558, 2.2005300000309944, 2.504864300135523]",,,5,001,D,2023_Jan_30_1646,student_TT_local,2021.1.4,60.51587364164571,
,"Remember to type as QUICKLY and ACCURATELY as possible after the 'get ready' prompt.

Ask the experimenter any questions now. Please put on the headphones.

You will get one practice trial. Press 'enter/return' when you are ready to start the practice.","Remember to type as QUICKLY and ACCURATELY as you can after the 'get ready' prompt.

Ask the experimenter any questions now. Please put on the headphones.

You will get one practice trial. Press 'enter/return' when you are ready to start the practice.",video&audio/Example_AOMI_total.png,1.8,0.7,None,None,None,None,None,jargon,oppose,19.5,20.5,video&audio/Sentence3_touch_edited.mp4,video&audio/ghetto_touch_edited.mp4,frugal,ghetto,None,,,,,,,,,,,,,,,,,,,,,,,,,,,,,,,,,,,,,,,,,,,,,,,,,,,,,,,,,,,0,12,12,2,,,,,,,,,,,,,,,,None,,,,,,,,,,,,,,,,,,,,,,,,None, ghetto,"['g', 'h', 'e', 't', 't', 'o', 'return']","[0.468584599904716, 0.6771253999322653, 0.8926032998133451, 1.1724846998695284, 1.34133159997873, 1.4771035998128355, 1.8210228998214006]",,,5,001,D,2023_Jan_30_1646,student_TT_local,2021.1.4,60.51587364164571,
,None,None,None,None,None,None,None,None,None,None,potent,tandem,6.5,7.5,video&audio/sentence4_TT_3X.mp4,video&audio/origin_TT_3X.mp4,falter,origin,None,,,,,,,,,,,,,,,,,,,,,,,,,,,,,,,,,,,,,,,,,,,,,,,,,,,,,,,,,,,0,13,13,15,,,,,,,,,,,,,,,,None,,,,,,,,,,,,,,,,,,,,,,,,None, origin,"['o', 'r', 'i', 'g', 'i', 'n', 'return']","[0.6643258000258356, 0.9924465999938548, 1.4801562998909503, 1.6401974998880178, 1.7364252000115812, 1.832333100028336, 2.184348799986765]",,,5,001,D,2023_Jan_30_1646,student_TT_local,2021.1.4,60.51587364164571,
,None,None,None,None,None,None,None,None,None,None,mirage,shrewd,19.5,20.5,video&audio/Sentence1_touch_edited.mp4,video&audio/revoke_touch_edited.mp4,malady,revoke,None,,,,,,,,,,,,,,,,,,,,,,,,,,,,,,,,,,,,,,,,,,,,,,,,,,,,,,,,,,,0,14,14,6,,,,,,,,,,,,,,,,None,,,,,,,,,,,,,,,,,,,,,,,,None, revoke,"['r', 'e', 'v', 'o', 'k', 'j', 'e', 'return']","[0.361170900054276, 0.4567577999550849, 0.7849540000315756, 0.9932758000213653, 1.1372498001437634, 1.1449009999632835, 1.3048467999324203, 1.632705100113526]",,,5,001,D,2023_Jan_30_1646,student_TT_local,2021.1.4,60.51587364164571,
,None,None,None,None,None,None,None,None,None,None,strife,delude,19.5,20.5,video&audio/Sentence2_touch_edited.mp4,video&audio/galley_touch_edited.mp4,tariff,galley,None,,,,,,,,,,,,,,,,,,,,,,,,,,,,,,,,,,,,,,,,,,,,,,,,,,,,,,,,,,,0,15,15,7,,,,,,,,,,,,,,,,None,,,,,,,,,,,,,,,,,,,,,,,,None, galley,"['g', 'a', 'semicolon', 'semicolon', 'e', 'y', 'backspace', 'backspace', 'backspace', 'backspace', 'l', 'l', 'e', 'y', 'return']","[0.48029289999976754, 0.6870734998956323, 0.902261900017038, 1.0785165999550372, 1.230235799914226, 1.4234764999710023, 1.7991204999852926, 2.0067465000320226, 2.142746699973941, 2.582484900020063, 2.8944363000337034, 3.038745499914512, 3.119131000014022, 3.223158200038597, 3.3745345999486744]",,,5,001,D,2023_Jan_30_1646,student_TT_local,2021.1.4,60.51587364164571,
,None,None,None,None,None,None,None,None,None,None,satire,mangle,6.5,7.5,video&audio/sentence1_TT_3X.mp4,video&audio/warble_TT_3X.mp4,devise,warble,None,,,,,,,,,,,,,,,,,,,,,,,,,,,,,,,,,,,,,,,,,,,,,,,,,,,,,,,,,,,0,16,16,24,,,,,,,,,,,,,,,,None,,,,,,,,,,,,,,,,,,,,,,,,None, warble,"['w', 'a', 'r', 'b', 'l', 'e', 'return']","[0.3426904999651015, 0.7503827000036836, 1.030143199954182, 1.3268049999605864, 1.5826459999661893, 1.710921100107953, 1.9900899999774992]",,,5,001,D,2023_Jan_30_1646,student_TT_local,2021.1.4,60.51587364164571,
,None,None,None,None,None,None,None,None,None,None,convoy,output,6.5,7.5,video&audio/sentence1_TT_3X.mp4,video&audio/uphold_TT_3X.mp4,debtor,uphold,None,,,,,,,,,,,,,,,,,,,,,,,,,,,,,,,,,,,,,,,,,,,,,,,,,,,,,,,,,,,0,17,17,18,,,,,,,,,,,,,,,,None,,,,,,,,,,,,,,,,,,,,,,,,None, uphold,"['u', 'p', 'h', 'o', 'l', 'd', 'return']","[0.7272995999082923, 0.8791674999520183, 1.1992771998047829, 1.49549279990606, 1.7114807998295873, 1.8642990998923779, 2.087481499882415]",,,5,001,D,2023_Jan_30_1646,student_TT_local,2021.1.4,60.51587364164571,
,None,None,None,None,None,None,None,None,None,None,impose,feudal,6.5,7.5,video&audio/sentence3_TT_3X.mp4,video&audio/matron_TT_3X.mp4,subdue,matron,None,,,,,,,,,,,,,,,,,,,,,,,,,,,,,,,,,,,,,,,,,,,,,,,,,,,,,,,,,,,0,18,18,26,,,,,,,,,,,,,,,,None,,,,,,,,,,,,,,,,,,,,,,,,None, matron,"['m', 'a', 't', 'r', 'o', 'return']","[0.7191242000553757, 0.8306722000706941, 1.1036590000148863, 1.1910568000748754, 1.3347686999477446, 1.9190672999247909]",,,5,001,D,2023_Jan_30_1646,student_TT_local,2021.1.4,60.51587364164571,
,"While you watch the video, imagine yourself typing the word on the screen, like how you did in the imagery practice. While you watch the video and imagine this, rest your hands on your keyboard but DO NOT type until AFTER you see the typing prompt.

Press 'enter/return' to go to the next page.","While watching the video, imagine yourself typing the word on the screen, like how you did in the imagery practice. While you watch the video and imagine this, rest your hands on your keyboard but DO NOT type until AFTER you see the typing prompt.

Press 'enter/return' to go to the next page.",video&audio/Example_AOMI_imagine.png,1.6,1,butter,6.5,7.5,video&audio/amount_TT_3X.mp4,video&audio/butter_TT_3X.mp4,plight,metric,19.5,20.5,video&audio/Sentence2_touch_edited.mp4,video&audio/eatery_touch_edited.mp4,ascend,eatery,2 = AOMIspec,,,,,,,,,,,,,,,,,,,,,,,,,,,,,,,,,,,,,,,,,,,,,,,,,,,,,,,,,,,0,19,19,1,,,,,,,,,,,,,,,,None,,,,,,,,,,,,,,,,,,,,,,,,None, eatery,"['e', 'a', 't', 'e', 'r', 'y', 'return']","[0.451105099869892, 0.6590992999263108, 1.1640200999099761, 1.275090399896726, 1.3874328997917473, 2.0349852999206632, 2.171805099816993]",,,5,001,D,2023_Jan_30_1646,student_TT_local,2021.1.4,60.51587364164571,
,None,None,None,None,None,None,None,None,None,None,savant,induce,6.5,7.5,video&audio/sentence4_TT_3X.mp4,video&audio/mussel_TT_3X.mp4,cortex,mussel,None,,,,,,,,,,,,,,,,,,,,,,,,,,,,,,,,,,,,,,,,,,,,,,,,,,,,,,,,,,,0,20,20,21,,,,,,,,,,,,,,,,None,,,,,,,,,,,,,,,,,,,,,,,,None, mussel,"['m', 'u', 'd', 'backspace', 's', 's', 'e', 'l', 'return']","[0.39992620004341006, 0.6637548999860883, 0.8719512999523431, 1.3758727998938411, 1.647615300025791, 1.8161452000495046, 2.0555851000826806, 2.2317234000656754, 2.5038415000308305]",,,5,001,D,2023_Jan_30_1646,student_TT_local,2021.1.4,60.51587364164571,
,None,None,None,None,None,None,None,None,None,None,murmur,cobble,6.5,7.5,video&audio/sentence2_TT_3X.mp4,video&audio/export_TT_3X.mp4,cervix,export,None,,,,,,,,,,,,,,,,,,,,,,,,,,,,,,,,,,,,,,,,,,,,,,,,,,,,,,,,,,,0,21,21,19,,,,,,,,,,,,,,,,None,,,,,,,,,,,,,,,,,,,,,,,,None, export,"['e', 'x', 'p', 'o', 'r', 't', 'return']","[0.36092690005898476, 0.6885643000714481, 1.1529987000394613, 1.3368037000764161, 1.6329266000539064, 1.7454614001326263, 2.1128269999753684]",,,5,001,D,2023_Jan_30_1646,student_TT_local,2021.1.4,60.51587364164571,
,None,None,None,None,None,None,None,None,None,None,deduct,jailer,6.5,7.5,video&audio/sentence5_TT_3X.mp4,video&audio/nettle_TT_3X.mp4,plasma,nettle,None,,,,,,,,,,,,,,,,,,,,,,,,,,,,,,,,,,,,,,,,,,,,,,,,,,,,,,,,,,,0,22,22,16,,,,,,,,,,,,,,,,None,,,,,,,,,,,,,,,,,,,,,,,,None, nettle,"['n', 'e', 't', 't', 'l', 'e', 'return']","[0.5644606000278145, 0.692607699893415, 1.0531232000794262, 1.1964775000233203, 1.3327055000700057, 1.476469999877736, 1.7087634999770671]",,,5,001,D,2023_Jan_30_1646,student_TT_local,2021.1.4,60.51587364164571,
,None,None,None,None,None,None,None,None,None,None,musket,meddle,6.5,7.5,video&audio/sentence2_TT_3X.mp4,video&audio/divert_TT_3X.mp4,kipper,divert,None,,,,,,,,,,,,,,,,,,,,,,,,,,,,,,,,,,,,,,,,,,,,,,,,,,,,,,,,,,,0,23,23,25,,,,,,,,,,,,,,,,None,,,,,,,,,,,,,,,,,,,,,,,,None, divert,"['d', 'i', 'v', 'e', 'r', 't', 'return']","[0.5366335001308471, 0.7365223001688719, 0.9278343000914901, 1.143928200006485, 1.2158373000565916, 1.4562201001681387, 1.6480954000726342]",,,5,001,D,2023_Jan_30_1646,student_TT_local,2021.1.4,60.51587364164571,
,None,None,None,None,None,None,None,None,None,None,brazen,fungal,6.5,7.5,video&audio/sentence5_TT_3X.mp4,video&audio/mucous_TT_3X.mp4,subtle,mucous,None,,,,,,,,,,,,,,,,,,,,,,,,,,,,,,,,,,,,,,,,,,,,,,,,,,,,,,,,,,,0,24,24,22,,,,,,,,,,,,,,,,None,,,,,,,,,,,,,,,,,,,,,,,,None, mucous,"['m', 'u', 'c', 'o', 'u', 's', 'return']","[0.5723079000599682, 0.9174420000053942, 1.2366400000173599, 1.4530609000939876, 1.565340100089088, 1.9092478000093251, 2.1487790001556277]",,,5,001,D,2023_Jan_30_1646,student_TT_local,2021.1.4,60.51587364164571,
,None,None,None,None,None,None,None,None,None,None,sonnet,hearth,19.5,20.5,video&audio/Sentence3_touch_edited.mp4,video&audio/herbal_touch_edited.mp4,hippie,herbal,None,,,,,,,,,,,,,,,,,,,,,,,,,,,,,,,,,,,,,,,,,,,,,,,,,,,,,,,,,,,0,25,25,14,,,,,,,,,,,,,,,,None,,,,,,,,,,,,,,,,,,,,,,,,None, herbal,"['h', 'e', 'r', 'b', 'a', 'l', 'return']","[0.5386845001485199, 0.6828065000008792, 0.7305431000422686, 0.9226014001760632, 1.066706000128761, 1.330918300198391, 1.7387805001344532]",,,5,001,D,2023_Jan_30_1646,student_TT_local,2021.1.4,60.51587364164571,
,None,None,None,None,None,None,None,None,None,None,critic,binder,19.5,20.5,video&audio/Sentence1_touch_edited.mp4,video&audio/tamper_touch_edited.mp4,confer,tamper,None,,,,,,,,,,,,,,,,,,,,,,,,,,,,,,,,,,,,,,,,,,,,,,,,,,,,,,,,,,,0,26,26,12,,,,,,,,,,,,,,,,None,,,,,,,,,,,,,,,,,,,,,,,,None, tamper,"['t', 'a', 'm', 'p', 'e', 'r', 'return']","[0.5755243999883533, 0.7191195001360029, 0.8789703000802547, 1.087393900146708, 1.2155289000365883, 1.2960275001823902, 1.727265000110492]",,,5,001,D,2023_Jan_30_1646,student_TT_local,2021.1.4,60.51587364164571,
,None,None,None,None,None,None,None,None,None,None,revolt,joiner,19.5,20.5,video&audio/Sentence6_touch_edited.mp4,video&audio/apathy_touch_edited.mp4,virile,apathy,None,,,,,,,,,,,,,,,,,,,,,,,,,,,,,,,,,,,,,,,,,,,,,,,,,,,,,,,,,,,0,27,27,5,,,,,,,,,,,,,,,,None,,,,,,,,,,,,,,,,,,,,,,,,None, apathy,"['a', 'p', 'a', 't', 'h', 'y', 'return']","[0.5368738998658955, 0.6881069999653846, 0.7605228999163955, 1.0094781999941915, 1.1042305999435484, 1.2404092999640852, 1.6805465000215918]",,,5,001,D,2023_Jan_30_1646,student_TT_local,2021.1.4,60.51587364164571,
,None,None,None,None,None,None,None,None,None,None,goblet,befall,19.5,20.5,video&audio/Sentence3_touch_edited.mp4,video&audio/ration_touch_edited.mp4,solemn,ration,None,,,,,,,,,,,,,,,,,,,,,,,,,,,,,,,,,,,,,,,,,,,,,,,,,,,,,,,,,,,0,28,28,8,,,,,,,,,,,,,,,,None,,,,,,,,,,,,,,,,,,,,,,,,None, ration,"['r', 'a', 't', 'i', 'o', 'n', 'return']","[0.7512076001148671, 0.855057300068438, 1.0713065001182258, 1.2320345002226532, 1.3433126001618803, 1.4711617000866681, 1.9512528001796454]",,,5,001,D,2023_Jan_30_1646,student_TT_local,2021.1.4,60.51587364164571,
,None,None,None,None,None,None,None,None,None,None,upkeep,parish,6.5,7.5,video&audio/sentence5_TT_3X.mp4,video&audio/gullet_TT_3X.mp4,picket,gullet,None,,,,,,,,,,,,,,,,,,,,,,,,,,,,,,,,,,,,,,,,,,,,,,,,,,,,,,,,,,,0,29,29,28,,,,,,,,,,,,,,,,None,,,,,,,,,,,,,,,,,,,,,,,,None, gullet,"['g', 'u', 'l', 'l', 'e', 'return']","[0.4278886001557112, 0.5318183000199497, 0.860613000113517, 0.963699399959296, 1.1960521000437438, 1.523801299976185]",,,5,001,D,2023_Jan_30_1646,student_TT_local,2021.1.4,60.51587364164571,
,,,,,,,,,,,,,,,,,,,,typingRatingScale.png,"How would you rate your typing performance in the previous section?

Press a number on your keyboard according to the rating scale below to give your answer. Your first answer will be accepted.",,,,,,,,,,,,,,,,,,,,,,,,,,,,,,,,,,,,,,,,,,,,,,,,,,,,,,,,,,,,,0,0,0,0,,,,,,,,,,,,,,,,,,,,,,,,,,,,,,,,,,,,,,,,['4'],[4.589604300213978],5,001,D,2023_Jan_30_1646,student_TT_local,2021.1.4,60.51587364164571,
,,,,,,,,,,,,,,,,,,,,visualImageryScale.png,"While imagining yourself typing, how clear was your visual image?

Press a number on your keyboard according to the rating scale below to give your answer. Your first answer will be accepted.",,,,,,,,,,,,,,,,,,,,,,,,,,,,,,,,,,,,,,,,,,,,,,,,,,,,,,,,,,,,,0,1,1,1,,,,,,,,,,,,,,,,,,,,,,,,,,,,,,,,,,,,,,,,['2'],[5.69209840008989],5,001,D,2023_Jan_30_1646,student_TT_local,2021.1.4,60.51587364164571,
,,,,,,,,,,,,,,,,,,,,kinestheticImageryScale.png,"While imagining yourself typing, how intense were the sensations associated with the imagined movement?

Press a number on your keyboard according to the rating scale below to give your answer. Your first answer will be accepted.",,,,,,,,,,,,,,,,,,,,,,,,,,,,,,,,,,,,,,,,,,,,,,,,,,,,,,,,,,,,,0,2,2,2,,,,,,,,,,,,,,,,,,,,,,,,,,,,,,,,,,,,,,,,['5'],[5.851244800025597],5,001,D,2023_Jan_30_1646,student_TT_local,2021.1.4,60.51587364164571,
