pracWords,instr_1,instr_2,AOMI_Ima,AOMI_w,AOMI_h,practiceWords,prac_time,prac_bkgd_time,pracVid_1,pracVid_2,baseline_words,control_words,cont_time,cont_bgkd_time,first_vids,second_vids,AOMIfirst_words,AOMIsecond_words,Order,ratingScale,rateInstr,instructLoop.thisRepN,instructLoop.thisTrialN,instructLoop.thisN,instructLoop.thisIndex,practice_control.thisRepN,practice_control.thisTrialN,practice_control.thisN,practice_control.thisIndex,trials_1.thisRepN,trials_1.thisTrialN,trials_1.thisN,trials_1.thisIndex,baseRateLoop.thisRepN,baseRateLoop.thisTrialN,baseRateLoop.thisN,baseRateLoop.thisIndex,AOMIinstrLoop1.thisRepN,AOMIinstrLoop1.thisTrialN,AOMIinstrLoop1.thisN,AOMIinstrLoop1.thisIndex,AOMIpracLoop.thisRepN,AOMIpracLoop.thisTrialN,AOMIpracLoop.thisN,AOMIpracLoop.thisIndex,trials_2.thisRepN,trials_2.thisTrialN,trials_2.thisN,trials_2.thisIndex,AOMI1rateLoop.thisRepN,AOMI1rateLoop.thisTrialN,AOMI1rateLoop.thisN,AOMI1rateLoop.thisIndex,contInstrLoop.thisRepN,contInstrLoop.thisTrialN,contInstrLoop.thisN,contInstrLoop.thisIndex,contPracLoop.thisRepN,contPracLoop.thisTrialN,contPracLoop.thisN,contPracLoop.thisIndex,trials_3.thisRepN,trials_3.thisTrialN,trials_3.thisN,trials_3.thisIndex,contRateLoop.thisRepN,contRateLoop.thisTrialN,contRateLoop.thisN,contRateLoop.thisIndex,AOMIinstrLoop2.thisRepN,AOMIinstrLoop2.thisTrialN,AOMIinstrLoop2.thisN,AOMIinstrLoop2.thisIndex,AOMIpracLoop2.thisRepN,AOMIpracLoop2.thisTrialN,AOMIpracLoop2.thisN,AOMIpracLoop2.thisIndex,trials_4.thisRepN,trials_4.thisTrialN,trials_4.thisN,trials_4.thisIndex,AOMI2rateLoop.thisRepN,AOMI2rateLoop.thisTrialN,AOMI2rateLoop.thisN,AOMI2rateLoop.thisIndex,pracBkgdKeys.keys,pracKeys.keys,pracKeys.rt,baseBkgdKeys.keys,base_typedWord,baseKeys.keys,baseKeys.rt,baseBkgdKeys.rt,baseRateTypeKey.keys,baseRateTypeKey.rt,AOMI1_BkgdKeys.keys,AOMI_promptBkgdKeys.keys,AOMI1pracKeys.keys,AOMI1pracKeys.rt,AOMI1bkdgKeys.keys,AOMI1_typedWord,AOMI1keys.keys,AOMI1keys.rt,AOMI1bkdgKeys.rt,AOMI1rateTypeKey.keys,AOMI1rateTypeKey.rt,polygon_prac.started,polygon_prac.stopped,contBkgdKeys_prac.keys,contPrac_typedWord,contKeys_prac.keys,contKeys_prac.rt,polygon.started,polygon.stopped,contBkgdKeys.keys,cont_typedWord,contKeys.keys,contKeys.rt,contTypeKey.keys,contTypeKey.rt,bkgdkeys_prac2.keys,bkgdKeys4.keys,AOMI2_typedWord,keyboardCom4.keys,keyboardCom4.rt,bkgdKeys4.rt,AOMI2typeKey.keys,AOMI2typeKey.rt,participant,session,group,date,expName,psychopyVersion,frameRate,
height,,,,,,,,,,,,,,,,,,,,,,,,,,0,0,0,0,,,,,,,,,,,,,,,,,,,,,,,,,,,,,,,,,,,,,,,,,,,,,,,,,,,,,,,,,None,"['h', 'e', 'i', 'g', 'h', 't', 'return']","[0.8217971000121906, 0.9740844999905676, 1.1106269999872893, 1.3185325999511406, 1.4225664000259712, 1.5339034999487922, 2.125814100028947]",,,,,,,,,,,,,,,,,,,,,,,,,,,,,,,,,,,,,,,,,6,001,G,2023_Feb_16_1143,student_TT_local,2021.1.4,48.02345081116486,
replay,,,,,,,,,,,,,,,,,,,,,,,,,,0,1,1,1,,,,,,,,,,,,,,,,,,,,,,,,,,,,,,,,,,,,,,,,,,,,,,,,,,,,,,,,,None,"['r', 'e', 'p', 'l', 'a', 'y', 'return']","[0.501189999980852, 0.5414443999761716, 0.6458118999144062, 0.8292933999327943, 0.9412389999488369, 1.1412509999936447, 1.9811977000208572]",,,,,,,,,,,,,,,,,,,,,,,,,,,,,,,,,,,,,,,,,6,001,G,2023_Feb_16_1143,student_TT_local,2021.1.4,48.02345081116486,
update,,,,,,,,,,,,,,,,,,,,,,,,,,0,2,2,2,,,,,,,,,,,,,,,,,,,,,,,,,,,,,,,,,,,,,,,,,,,,,,,,,,,,,,,,,None,"['u', 'p', 'd', 'a', 't', 'e', 'return']","[0.348565399996005, 0.42869740002788603, 0.5967526000458747, 0.621157200075686, 0.8446210999973118, 0.9245845000259578, 1.148413100047037]",,,,,,,,,,,,,,,,,,,,,,,,,,,,,,,,,,,,,,,,,6,001,G,2023_Feb_16_1143,student_TT_local,2021.1.4,48.02345081116486,
,None,None,None,None,None,None,None,None,None,None,mucous,musket,19.5,20.5,video&audio/plasma_touch_edited.mp4,video&audio/Sentence5_touch_edited.mp4,plasma,fungal,None,,,,,,,,,,,0,0,0,22,,,,,,,,,,,,,,,,,,,,,,,,,,,,,,,,,,,,,,,,,,,,,,,,,,,,,,,,None, mucous,"['m', 'u', 'c', 'o', 's', 'return']","[0.6018688000040129, 0.9697737999958917, 1.2501659999834374, 1.4018490000162274, 1.8103176000295207, 2.265973799978383]",,,,,,,,,,,,,,,,,,,,,,,,,,,,,,,,,,,,,6,001,G,2023_Feb_16_1143,student_TT_local,2021.1.4,48.02345081116486,
,None,None,None,None,None,None,None,None,None,None,divert,upkeep,19.5,20.5,video&audio/solemn_touch_edited.mp4,video&audio/Sentence2_touch_edited.mp4,solemn,meddle,None,,,,,,,,,,,0,1,1,25,,,,,,,,,,,,,,,,,,,,,,,,,,,,,,,,,,,,,,,,,,,,,,,,,,,,,,,,None, divert,"['d', 'i', 'v', 'e', 'r', 't', 'return']","[0.5922513999976218, 0.688426100066863, 0.8964823000133038, 1.016602300107479, 1.1283347000135109, 1.2644053000258282, 1.4403028000378981]",,,,,,,,,,,,,,,,,,,,,,,,,,,,,,,,,,,,,6,001,G,2023_Feb_16_1143,student_TT_local,2021.1.4,48.02345081116486,
,None,None,None,None,None,None,None,None,None,None,apathy,revolt,6.5,7.5,video&audio/cortex_TT_3X.mp4,video&audio/sentence6_TT_3X.mp4,cortex,joiner,None,,,,,,,,,,,0,2,2,5,,,,,,,,,,,,,,,,,,,,,,,,,,,,,,,,,,,,,,,,,,,,,,,,,,,,,,,,None, apathy,"['s', 'p', 'a', 't', 'h', 'y', 'backspace', 'backspace', 'backspace', 'backspace', 'backspace', 'backspace', 'a', 'p', 'a', 't', 'h', 'y', 'return']","[0.4062232000287622, 0.5262869999278337, 0.5744818999664858, 0.8382819999242201, 0.9583349999738857, 1.0862023999216035, 1.854301800020039, 1.9901365999830887, 2.07045829994604, 2.246284900000319, 2.39025739999488, 2.518565399921499, 2.8781937999883667, 3.1102013000054285, 3.19022520002909, 3.414480899926275, 3.4942343999864534, 3.6302742999978364, 3.902323200018145]",,,,,,,,,,,,,,,,,,,,,,,,,,,,,,,,,,,,,6,001,G,2023_Feb_16_1143,student_TT_local,2021.1.4,48.02345081116486,
,None,None,None,None,None,None,None,None,None,None,ethnic,goblet,19.5,20.5,video&audio/subtle_touch_edited.mp4,video&audio/Sentence4_touch_edited.mp4,subtle,trench,None,,,,,,,,,,,0,3,3,27,,,,,,,,,,,,,,,,,,,,,,,,,,,,,,,,,,,,,,,,,,,,,,,,,,,,,,,,None, ethnic,"['e', 't', 'h', 'n', 'i', 'c', 'return']","[0.33662830002140254, 0.4967228000750765, 0.608695900067687, 0.8088455999968573, 0.9528294000774622, 1.2090115000028163, 1.4727977000875399]",,,,,,,,,,,,,,,,,,,,,,,,,,,,,,,,,,,,,6,001,G,2023_Feb_16_1143,student_TT_local,2021.1.4,48.02345081116486,
,None,None,None,None,None,None,None,None,None,None,allure,binder,19.5,20.5,video&audio/virile_touch_edited.mp4,video&audio/Sentence6_touch_edited.mp4,virile,campus,None,,,,,,,,,,,0,4,4,29,,,,,,,,,,,,,,,,,,,,,,,,,,,,,,,,,,,,,,,,,,,,,,,,,,,,,,,,None, allure,"['a', 'l', 'l', 'u', 'r', 'e', 'return']","[0.38443820003885776, 0.560759500018321, 0.6965730000520125, 0.8968373000388965, 1.016509999986738, 1.0884680999442935, 1.3529135000426322]",,,,,,,,,,,,,,,,,,,,,,,,,,,,,,,,,,,,,6,001,G,2023_Feb_16_1143,student_TT_local,2021.1.4,48.02345081116486,
,None,None,None,None,None,None,None,None,None,None,linear,impose,19.5,20.5,video&audio/pulpit_touch_edited.mp4,video&audio/Sentence6_touch_edited.mp4,pulpit,girdle,None,,,,,,,,,,,0,5,5,23,,,,,,,,,,,,,,,,,,,,,,,,,,,,,,,,,,,,,,,,,,,,,,,,,,,,,,,,None, linear,"['l', 'i', 'n', 'e', 'a', 'r', 'return']","[0.3651803999673575, 0.5571113999467343, 0.6769017999758944, 0.9809895999496803, 1.0932007000083104, 1.1892129000043496, 1.4050221999641508]",,,,,,,,,,,,,,,,,,,,,,,,,,,,,,,,,,,,,6,001,G,2023_Feb_16_1143,student_TT_local,2021.1.4,48.02345081116486,
,None,None,None,None,None,None,None,None,None,None,nettle,convoy,19.5,20.5,video&audio/matrix_touch_edited.mp4,video&audio/Sentence5_touch_edited.mp4,matrix,jailer,None,,,,,,,,,,,0,6,6,16,,,,,,,,,,,,,,,,,,,,,,,,,,,,,,,,,,,,,,,,,,,,,,,,,,,,,,,,None, nettle,"['n', 'e', 't', 't', 'l', 'e', 'return']","[0.3815090999705717, 0.47733529994729906, 0.6379303999710828, 0.7734398999018595, 0.9013515999540687, 0.9816145999357104, 1.2453629999654368]",,,,,,,,,,,,,,,,,,,,,,,,,,,,,,,,,,,,,6,001,G,2023_Feb_16_1143,student_TT_local,2021.1.4,48.02345081116486,
,None,None,None,None,None,None,None,None,None,None,revoke,mirage,6.5,7.5,video&audio/covert_TT_3X.mp4,video&audio/sentence1_TT_3X.mp4,covert,shrewd,None,,,,,,,,,,,0,7,7,6,,,,,,,,,,,,,,,,,,,,,,,,,,,,,,,,,,,,,,,,,,,,,,,,,,,,,,,,None, revoke,"['r', 'e', 'v', 'o', 'k', 'e', 'return']","[0.35506179998628795, 0.44309950002934784, 0.603294900036417, 1.0351217000279576, 1.2275113000068814, 1.3711670000338927, 1.5790882000001147]",,,,,,,,,,,,,,,,,,,,,,,,,,,,,,,,,,,,,6,001,G,2023_Feb_16_1143,student_TT_local,2021.1.4,48.02345081116486,
,None,None,None,None,None,None,None,None,None,None,portal,murmur,19.5,20.5,video&audio/neural_touch_edited.mp4,video&audio/Sentence6_touch_edited.mp4,neural,clergy,None,,,,,,,,,,,0,8,8,17,,,,,,,,,,,,,,,,,,,,,,,,,,,,,,,,,,,,,,,,,,,,,,,,,,,,,,,,None, portal,"['p', 'r', 't', 'backspace', 'backspace', 'backspace', 'p', 'o', 'r', 't', 'a', 's', 'backspace', 'l', 'return']","[0.3547215999569744, 0.4831887000473216, 0.683000799966976, 1.3628217000514269, 1.4590934000443667, 1.8587801000103354, 2.442847399972379, 2.594947600038722, 2.779154699994251, 2.858784900046885, 2.9871982999611646, 3.0266768999863416, 3.7628222999628633, 4.450813399977051, 4.666928500053473]",,,,,,,,,,,,,,,,,,,,,,,,,,,,,,,,,,,,,6,001,G,2023_Feb_16_1143,student_TT_local,2021.1.4,48.02345081116486,
,None,None,None,None,None,None,None,None,None,None,uphold,pursue,19.5,20.5,video&audio/obsess_touch_edited.mp4,video&audio/Sentence1_touch_edited.mp4,obsess,output,None,,,,,,,,,,,0,9,9,18,,,,,,,,,,,,,,,,,,,,,,,,,,,,,,,,,,,,,,,,,,,,,,,,,,,,,,,,None, uphold,"['u', 'p', 'h', 'o', 'l', 'd', 'return']","[0.747675699996762, 1.3474222999066114, 1.5476827999809757, 1.7554455999052152, 2.28355059993919, 2.3955317999934778, 2.6436718999175355]",,,,,,,,,,,,,,,,,,,,,,,,,,,,,,,,,,,,,6,001,G,2023_Feb_16_1143,student_TT_local,2021.1.4,48.02345081116486,
,None,None,None,None,None,None,None,None,None,None,origin,coerce,19.5,20.5,video&audio/malady_touch_edited.mp4,video&audio/Sentence4_touch_edited.mp4,malady,tandem,None,,,,,,,,,,,0,10,10,15,,,,,,,,,,,,,,,,,,,,,,,,,,,,,,,,,,,,,,,,,,,,,,,,,,,,,,,,None, origin,"['o', 'r', 'i', 'g', 'i', 'n', 'return']","[0.6037679999135435, 0.6916136998916045, 1.2197061999468133, 1.6521230998914689, 1.771674699964933, 1.923819699906744, 2.4837550999363884]",,,,,,,,,,,,,,,,,,,,,,,,,,,,,,,,,,,,,6,001,G,2023_Feb_16_1143,student_TT_local,2021.1.4,48.02345081116486,
,None,None,None,None,None,None,None,None,None,None,mussel,satire,19.5,20.5,video&audio/piston_touch_edited.mp4,video&audio/Sentence4_touch_edited.mp4,piston,induce,None,,,,,,,,,,,0,11,11,21,,,,,,,,,,,,,,,,,,,,,,,,,,,,,,,,,,,,,,,,,,,,,,,,,,,,,,,,None, mussel,"['m', 'u', 's', 'e', 'l', 'return']","[0.3065749000525102, 0.6660558000439778, 1.0183132999809459, 1.1463494000490755, 1.3141620999667794, 1.5542700999649242]",,,,,,,,,,,,,,,,,,,,,,,,,,,,,,,,,,,,,6,001,G,2023_Feb_16_1143,student_TT_local,2021.1.4,48.02345081116486,
,"This is Section 2.

In this section, your task will be the same as before - that is, to type the word you see on the screen after the typing prompt. However, rather than just seeing the word before typing, you will also see a video of someone typing the same word you will need to type at various speeds. 

Press 'enter/return' to go to the next page.","This is Section 4. 

In this section, your task will be the same as before - that is, to type the word you see on the screen after the typing prompt. You will see a video again, like in Section 2, only this time, the video will show someone typing different words to what you must type at various speeds. 

Press 'enter/return' to go to the next page.",video&audio/Example_AOMI_layout.png,1.6,0.6,afford,19.5,20.5,video&audio/afford_touch_edited.mp4,video&audio/amount_touch_edited.mp4,breach,vanity,6.5,7.5,video&audio/ascend_TT_3X.mp4,video&audio/sentence1_TT_3X.mp4,ascend,hinder,1 = AOMIspec,,,,,,,,,,,0,12,12,0,,,,,,,,,,,,,,,,,,,,,,,,,,,,,,,,,,,,,,,,,,,,,,,,,,,,,,,,None, breach,"['b', 'r', 'e', 'a', 'c', 'h', 'return']","[0.3554379999404773, 0.4676090000430122, 0.5393982999958098, 0.6512489999877289, 0.9234195000026375, 1.0753373999614269, 1.323358800029382]",,,,,,,,,,,,,,,,,,,,,,,,,,,,,,,,,,,,,6,001,G,2023_Feb_16_1143,student_TT_local,2021.1.4,48.02345081116486,
,"While you watch the video, imagine yourself typing the word on the screen, like how you did in the imagery practice. While you watch the video and imagine this, rest your hands on your keyboard but DO NOT type until AFTER you see the typing prompt.

Press 'enter/return' to go to the next page.","While watching the video, imagine yourself typing the word on the screen, like how you did in the imagery practice. While you watch the video and imagine this, rest your hands on your keyboard but DO NOT type until AFTER you see the typing prompt.

Press 'enter/return' to go to the next page.",video&audio/Example_AOMI_imagine.png,1.6,1,butter,6.5,7.5,video&audio/butter_TT_3X.mp4,video&audio/amount_TT_3X.mp4,eatery,plight,6.5,7.5,video&audio/belfry_TT_3X.mp4,video&audio/sentence2_TT_3X.mp4,belfry,metric,2 = AOMIgen,,,,,,,,,,,0,13,13,1,,,,,,,,,,,,,,,,,,,,,,,,,,,,,,,,,,,,,,,,,,,,,,,,,,,,,,,,None, eatery,"['e', 'a', 't', 'e', 'r', 'y', 'return']","[0.2604486000491306, 0.34116930002346635, 0.5006479000439867, 0.6285014000022784, 0.7887900000205263, 1.0205127999652177, 1.2446389000397176]",,,,,,,,,,,,,,,,,,,,,,,,,,,,,,,,,,,,,6,001,G,2023_Feb_16_1143,student_TT_local,2021.1.4,48.02345081116486,
,None,None,None,None,None,None,None,None,None,None,shroud,sherry,6.5,7.5,video&audio/falter_TT_3X.mp4,video&audio/sentence4_TT_3X.mp4,falter,hamlet,None,,,,,,,,,,,0,14,14,9,,,,,,,,,,,,,,,,,,,,,,,,,,,,,,,,,,,,,,,,,,,,,,,,,,,,,,,,None, shroud,"['s', 'h', 'r', 'o', 'u', 'd', 'return']","[0.3213697000173852, 0.44920530007220805, 0.5692988000810146, 0.6894835000857711, 0.9295538000296801, 1.1375535000115633, 1.681236800039187]",,,,,,,,,,,,,,,,,,,,,,,,,,,,,,,,,,,,,6,001,G,2023_Feb_16_1143,student_TT_local,2021.1.4,48.02345081116486,
,None,None,None,None,None,None,None,None,None,None,warble,fodder,19.5,20.5,video&audio/ritual_touch_edited.mp4,video&audio/Sentence1_touch_edited.mp4,ritual,mangle,None,,,,,,,,,,,0,15,15,24,,,,,,,,,,,,,,,,,,,,,,,,,,,,,,,,,,,,,,,,,,,,,,,,,,,,,,,,None, warble,"['w', 'a', 'r', 'b', 'l', 'e', 'return']","[0.38836899993475527, 0.46027389995288104, 0.5725910000037402, 0.7644361000275239, 1.244363399920985, 1.3483680000063032, 1.7005822999635711]",,,,,,,,,,,,,,,,,,,,,,,,,,,,,,,,,,,,,6,001,G,2023_Feb_16_1143,student_TT_local,2021.1.4,48.02345081116486,
,None,None,None,None,None,None,None,None,None,None,ordain,potent,6.5,7.5,video&audio/jackal_TT_3X.mp4,video&audio/sentence2_TT_3X.mp4,jackal,septic,None,,,,,,,,,,,0,16,16,13,,,,,,,,,,,,,,,,,,,,,,,,,,,,,,,,,,,,,,,,,,,,,,,,,,,,,,,,['return'], ordain,"['o', 'r', 'd', 'a', 'i', 'n', 'return']","[0.8700724999653175, 0.9662092999788001, 1.1582095999037847, 1.2940425999695435, 1.5100767000112683, 1.6619824999943376, 2.2700279999990016]",[0.13900639989878982],,,,,,,,,,,,,,,,,,,,,,,,,,,,,,,,,,,,6,001,G,2023_Feb_16_1143,student_TT_local,2021.1.4,48.02345081116486,
,None,None,None,None,None,None,None,None,None,None,entail,novice,6.5,7.5,video&audio/confer_TT_3X.mp4,video&audio/sentence5_TT_3X.mp4,confer,primal,None,,,,,,,,,,,0,17,17,4,,,,,,,,,,,,,,,,,,,,,,,,,,,,,,,,,,,,,,,,,,,,,,,,,,,,,,,,None, entail,"['e', 'n', 't', 'a', 'i', 'l', 'return']","[0.3698003999888897, 0.49008590006269515, 0.6022848000284284, 0.6977109999861568, 0.834044500021264, 1.049988199956715, 1.5701777000213042]",,,,,,,,,,,,,,,,,,,,,,,,,,,,,,,,,,,,,6,001,G,2023_Feb_16_1143,student_TT_local,2021.1.4,48.02345081116486,
,None,None,None,None,None,None,None,None,None,None,mystic,infirm,6.5,7.5,video&audio/cervix_TT_3X.mp4,video&audio/sentence4_TT_3X.mp4,cervix,oblige,None,,,,,,,,,,,0,18,18,3,,,,,,,,,,,,,,,,,,,,,,,,,,,,,,,,,,,,,,,,,,,,,,,,,,,,,,,,None, mystic,"['m', 'y', 's', 't', 'i', 'c', 'return']","[0.40030939993448555, 0.49625640001613647, 0.6083266999339685, 1.1603324000025168, 1.3282506000250578, 1.4882678999565542, 1.76836230000481]",,,,,,,,,,,,,,,,,,,,,,,,,,,,,,,,,,,,,6,001,G,2023_Feb_16_1143,student_TT_local,2021.1.4,48.02345081116486,
,None,None,None,None,None,None,None,None,None,None,tamper,sonnet,6.5,7.5,video&audio/hippie_TT_3X.mp4,video&audio/sentence1_TT_3X.mp4,hippie,innate,None,,,,,,,,,,,0,19,19,12,,,,,,,,,,,,,,,,,,,,,,,,,,,,,,,,,,,,,,,,,,,,,,,,,,,,,,,,None, tamper,"['t', 'a', 'm', 'p', 'e', 'r', 'return']","[0.34844580001663417, 0.4442572999978438, 0.6200837000505999, 0.7397667999612167, 0.8358239000663161, 0.8997716000303626, 1.2118309000506997]",,,,,,,,,,,,,,,,,,,,,,,,,,,,,,,,,,,,,6,001,G,2023_Feb_16_1143,student_TT_local,2021.1.4,48.02345081116486,
,None,None,None,None,None,None,None,None,None,None,gullet,manure,19.5,20.5,video&audio/tariff_touch_edited.mp4,video&audio/Sentence5_touch_edited.mp4,tariff,parish,None,,,,,,,,,,,0,20,20,28,,,,,,,,,,,,,,,,,,,,,,,,,,,,,,,,,,,,,,,,,,,,,,,,,,,,,,,,None, guller,"['g', 'u', 'l', 'l', 'w', 'backspace', 'e', 'r', 'return']","[0.3305113000096753, 0.4507000999292359, 0.6747026999946684, 0.8106941999867558, 0.8983464000048116, 1.5862897000042722, 1.7305151999462396, 1.786393899936229, 2.0584169999929145]",,,,,,,,,,,,,,,,,,,,,,,,,,,,,,,,,,,,,6,001,G,2023_Feb_16_1143,student_TT_local,2021.1.4,48.02345081116486,
,None,None,None,None,None,None,None,None,None,None,fusion,critic,6.5,7.5,video&audio/forage_TT_3X.mp4,video&audio/sentence5_TT_3X.mp4,forage,zephyr,None,,,,,,,,,,,0,21,21,10,,,,,,,,,,,,,,,,,,,,,,,,,,,,,,,,,,,,,,,,,,,,,,,,,,,,,,,,"['f', 'u', 's', 'i']", fusion,"['f', 'u', 's', 'i', 'o', 'n', 'return']","[0.4343477999791503, 0.5624256000155583, 0.6986489000264555, 0.906604400021024, 0.9783666000002995, 1.082314100000076, 1.770341399940662]","[1.3656722999876365, 1.4615200000116602, 1.5416973000392318, 1.7577829000074416]",,,,,,,,,,,,,,,,,,,,,,,,,,,,,,,,,,,,6,001,G,2023_Feb_16_1143,student_TT_local,2021.1.4,48.02345081116486,
,"Remember to type as QUICKLY and ACCURATELY as possible after the 'get ready' prompt.

Ask the experimenter any questions now. Please put on the headphones.

You will get one practice trial. Press 'enter/return' when you are ready to start the practice.","Remember to type as QUICKLY and ACCURATELY as you can after the 'get ready' prompt.

Ask the experimenter any questions now. Please put on the headphones.

You will get one practice trial. Press 'enter/return' when you are ready to start the practice.",video&audio/Example_AOMI_total.png,1.8,0.7,None,None,None,None,None,ghetto,jargon,6.5,7.5,video&audio/botany_TT_3X.mp4,video&audio/sentence3_TT_3X.mp4,botany,oppose,None,,,,,,,,,,,0,22,22,2,,,,,,,,,,,,,,,,,,,,,,,,,,,,,,,,,,,,,,,,,,,,,,,,,,,,,,,,None, ghetto,"['g', 'h', 'e', 't', 't', 'o', 'return']","[0.5160075000021607, 0.6677771999966353, 0.78766120004002, 0.955658599967137, 1.1719076000154018, 1.3718872999306768, 1.931901799980551]",,,,,,,,,,,,,,,,,,,,,,,,,,,,,,,,,,,,,6,001,G,2023_Feb_16_1143,student_TT_local,2021.1.4,48.02345081116486,
,None,None,None,None,None,None,None,None,None,None,galley,strife,6.5,7.5,video&audio/debtor_TT_3X.mp4,video&audio/sentence2_TT_3X.mp4,debtor,delude,None,,,,,,,,,,,0,23,23,7,,,,,,,,,,,,,,,,,,,,,,,,,,,,,,,,,,,,,,,,,,,,,,,,,,,,,,,,None, galley,"['g', 'a', 'l', 'l', 'e', 'y', 'return']","[0.5485017999308184, 0.6919230999192223, 1.3480181000195444, 1.4599179999204352, 1.5721006999956444, 1.9642825999762863, 2.524028699961491]",,,,,,,,,,,,,,,,,,,,,,,,,,,,,,,,,,,,,6,001,G,2023_Feb_16_1143,student_TT_local,2021.1.4,48.02345081116486,
,None,None,None,None,None,None,None,None,None,None,defame,quarry,6.5,7.5,video&audio/frugal_TT_3X.mp4,video&audio/sentence6_TT_3X.mp4,frugal,patent,None,,,,,,,,,,,0,24,24,11,,,,,,,,,,,,,,,,,,,,,,,,,,,,,,,,,,,,,,,,,,,,,,,,,,,,,,,,None, defame,"['d', 'e', 'f', 'a', 'm', 'e', 'return']","[0.4158958999905735, 0.5837004000786692, 0.7596638000104576, 0.863695300067775, 1.1360125000355765, 1.2396212000166997, 1.8957064000423998]",,,,,,,,,,,,,,,,,,,,,,,,,,,,,,,,,,,,,6,001,G,2023_Feb_16_1143,student_TT_local,2021.1.4,48.02345081116486,
,None,None,None,None,None,None,None,None,None,None,herbal,deduct,6.5,7.5,video&audio/kipper_TT_3X.mp4,video&audio/sentence3_TT_3X.mp4,kipper,hearth,None,,,,,,,,,,,0,25,25,14,,,,,,,,,,,,,,,,,,,,,,,,,,,,,,,,,,,,,,,,,,,,,,,,,,,,,,,,None, herbal,"['h', 'e', 'r', 'b', 'a', 'l', 'return']","[0.4869833999546245, 0.5987739999545738, 0.91077449999284, 1.1508363999892026, 1.2548550999490544, 1.438953600008972, 1.95087760000024]",,,,,,,,,,,,,,,,,,,,,,,,,,,,,,,,,,,,,6,001,G,2023_Feb_16_1143,student_TT_local,2021.1.4,48.02345081116486,
,None,None,None,None,None,None,None,None,None,None,ration,parole,6.5,7.5,video&audio/devise_TT_3X.mp4,video&audio/sentence3_TT_3X.mp4,devise,befall,None,,,,,,,,,,,0,26,26,8,,,,,,,,,,,,,,,,,,,,,,,,,,,,,,,,,,,,,,,,,,,,,,,,,,,,,,,,None, ration,"['r', 'a', 't', 'i', 'o', 'n', 'return']","[0.3840366000076756, 0.4642415000125766, 0.592416699975729, 0.736752999946475, 0.8001696999417618, 0.9522465999471024, 1.2883515999419615]",,,,,,,,,,,,,,,,,,,,,,,,,,,,,,,,,,,,,6,001,G,2023_Feb_16_1143,student_TT_local,2021.1.4,48.02345081116486,
,None,None,None,None,None,None,None,None,None,None,shrill,brazen,19.5,20.5,video&audio/picket_touch_edited.mp4,video&audio/Sentence3_touch_edited.mp4,picket,caviar,None,,,,,,,,,,,0,27,27,20,,,,,,,,,,,,,,,,,,,,,,,,,,,,,,,,,,,,,,,,,,,,,,,,,,,,,,,,None, shrill,"['s', 'h', 'r', 'i', 'l', 'l', 'return']","[0.3260473000118509, 0.4615948999999091, 0.5896560000255704, 0.7176258000545204, 0.9415619000792503, 1.1095698999706656, 1.7656666999682784]",,,,,,,,,,,,,,,,,,,,,,,,,,,,,,,,,,,,,6,001,G,2023_Feb_16_1143,student_TT_local,2021.1.4,48.02345081116486,
,None,None,None,None,None,None,None,None,None,None,matron,legion,19.5,20.5,video&audio/subdue_touch_edited.mp4,video&audio/Sentence3_touch_edited.mp4,subdue,feudal,None,,,,,,,,,,,0,28,28,26,,,,,,,,,,,,,,,,,,,,,,,,,,,,,,,,,,,,,,,,,,,,,,,,,,,,,,,,None, matron,"['m', 'a', 't', 'r', 'o', 'n', 'return']","[0.31403909996151924, 0.39404579997062683, 0.5219567000167444, 1.0180760000366718, 1.1945320999948308, 1.3378385999239981, 2.0578235000139102]",,,,,,,,,,,,,,,,,,,,,,,,,,,,,,,,,,,,,6,001,G,2023_Feb_16_1143,student_TT_local,2021.1.4,48.02345081116486,
,None,None,None,None,None,None,None,None,None,None,export,savant,19.5,20.5,video&audio/parcel_touch_edited.mp4,video&audio/Sentence2_touch_edited.mp4,parcel,cobble,None,,,,,,,,,,,0,29,29,19,,,,,,,,,,,,,,,,,,,,,,,,,,,,,,,,,,,,,,,,,,,,,,,,,,,,,,,,None, export,"['e', 'x', 'p', 'o', 'r', 't', 'return']","[0.37102500000037253, 0.5228516000788659, 1.0514211000408977, 1.4354816001141444, 1.5070930001093075, 1.5633969000773504, 1.7550047000404447]",,,,,,,,,,,,,,,,,,,,,,,,,,,,,,,,,,,,,6,001,G,2023_Feb_16_1143,student_TT_local,2021.1.4,48.02345081116486,
,,,,,,,,,,,,,,,,,,,,typingRatingScale.png,"How would you rate your typing performance in the previous section?

Press a number on your keyboard according to the rating scale below to give your answer. Your first answer will be accepted.",,,,,,,,,,,,,0,0,0,0,,,,,,,,,,,,,,,,,,,,,,,,,,,,,,,,,,,,,,,,,,,,,,,,,,,,,,,,,['3'],[15.118482799967751],,,,,,,,,,,,,,,,,,,,,,,,,,,,,,,,,,6,001,G,2023_Feb_16_1143,student_TT_local,2021.1.4,48.02345081116486,
,,,,,,,,,,,,,,,,,,,,imageryCheckScale.png,"In the previous section did you imagine yourself typing?

Press a number on your keyboard according to the rating scale below to give your answer. Your first answer will be accepted.",,,,,,,,,,,,,0,1,1,1,,,,,,,,,,,,,,,,,,,,,,,,,,,,,,,,,,,,,,,,,,,,,,,,,,,,,,,,,['4'],[8.053258499945514],,,,,,,,,,,,,,,,,,,,,,,,,,,,,,,,,,6,001,G,2023_Feb_16_1143,student_TT_local,2021.1.4,48.02345081116486,
,None,None,None,None,None,None,None,None,None,None,nettle,convoy,19.5,20.5,video&audio/matrix_touch_edited.mp4,video&audio/Sentence5_touch_edited.mp4,matrix,jailer,None,,,,,,,,,,,,,,,,,,,,,,,,,,,0,0,0,16,,,,,,,,,,,,,,,,,,,,,,,,,,,,,,,,,,,,,,,,,,,,,,,None,None,"['b', 'u', 't', 't', 'e', 'r', 'return']","[0.5821449999930337, 0.7179871000116691, 0.9419573000632226, 1.117915700073354, 1.2619979999726638, 1.3658535000868142, 1.5182476000627503]",None, matrix,"['m', 'a', 'a', 'backspace', 't', 'r', 'i', 'x', 'return']","[0.4558021000120789, 0.4637846000259742, 1.4081238000653684, 2.208152800099924, 2.455986600019969, 2.5358446000609547, 3.0797866000793874, 3.440051200101152, 4.064029900007881]",,,,,,,,,,,,,,,,,,,,,,,,,,6,001,G,2023_Feb_16_1143,student_TT_local,2021.1.4,48.02345081116486,
,"While you watch the video, imagine yourself typing the word on the screen, like how you did in the imagery practice. While you watch the video and imagine this, rest your hands on your keyboard but DO NOT type until AFTER you see the typing prompt.

Press 'enter/return' to go to the next page.","While watching the video, imagine yourself typing the word on the screen, like how you did in the imagery practice. While you watch the video and imagine this, rest your hands on your keyboard but DO NOT type until AFTER you see the typing prompt.

Press 'enter/return' to go to the next page.",video&audio/Example_AOMI_imagine.png,1.6,1,butter,6.5,7.5,video&audio/butter_TT_3X.mp4,video&audio/amount_TT_3X.mp4,eatery,plight,6.5,7.5,video&audio/belfry_TT_3X.mp4,video&audio/sentence2_TT_3X.mp4,belfry,metric,2 = AOMIgen,,,,,,,,,,,,,,,,,,,,,,,,,,,0,1,1,1,,,,,,,,,,,,,,,,,,,,,,,,,,,,,,,,,,,,,,,,,,,,,,,,None,,,None, be;fry,"['b', 'e', 'semicolon', 'f', 'r', 'y', 'return']","[0.5639722999185324, 0.6918437000131235, 0.9158985000103712, 1.1558317999588326, 1.3318122999044135, 1.691841799998656, 2.3719171999255195]",,,,,,,,,,,,,,,,,,,,,,,,,,6,001,G,2023_Feb_16_1143,student_TT_local,2021.1.4,48.02345081116486,
,None,None,None,None,None,None,None,None,None,None,tamper,sonnet,6.5,7.5,video&audio/hippie_TT_3X.mp4,video&audio/sentence1_TT_3X.mp4,hippie,innate,None,,,,,,,,,,,,,,,,,,,,,,,,,,,0,2,2,12,,,,,,,,,,,,,,,,,,,,,,,,,,,,,,,,,,,,,,,,,,,,,,,,None,,,['backspace'], hippie,"['h', 'i', 'p', 'p', 'i', 'e', 'return']","[0.559903800021857, 0.8319947000127286, 1.0637545000063255, 1.2079237001016736, 1.9438198000425473, 2.439749400014989, 2.6398486000252888]",[0.1734944999916479],,,,,,,,,,,,,,,,,,,,,,,,,6,001,G,2023_Feb_16_1143,student_TT_local,2021.1.4,48.02345081116486,
,None,None,None,None,None,None,None,None,None,None,portal,murmur,19.5,20.5,video&audio/neural_touch_edited.mp4,video&audio/Sentence6_touch_edited.mp4,neural,clergy,None,,,,,,,,,,,,,,,,,,,,,,,,,,,0,3,3,17,,,,,,,,,,,,,,,,,,,,,,,,,,,,,,,,,,,,,,,,,,,,,,,,None,,,None, neural,"['n', 'e', 'u', 'r', 'a', 'l', 'return']","[0.45644499990157783, 0.6481464999960735, 0.912393799982965, 1.064456699998118, 1.1764949999051169, 1.5285814999369904, 2.120371799916029]",,,,,,,,,,,,,,,,,,,,,,,,,,6,001,G,2023_Feb_16_1143,student_TT_local,2021.1.4,48.02345081116486,
,None,None,None,None,None,None,None,None,None,None,origin,coerce,19.5,20.5,video&audio/malady_touch_edited.mp4,video&audio/Sentence4_touch_edited.mp4,malady,tandem,None,,,,,,,,,,,,,,,,,,,,,,,,,,,0,4,4,15,,,,,,,,,,,,,,,,,,,,,,,,,,,,,,,,,,,,,,,,,,,,,,,,None,,,None, malady,"['m', 'a', 'l', 'a', 'd', 'y', 'return']","[0.5001084000105038, 0.8203539999667555, 1.3725725000258535, 1.4681331999599934, 1.716264700051397, 2.0441423000302166, 2.252175100031309]",,,,,,,,,,,,,,,,,,,,,,,,,,6,001,G,2023_Feb_16_1143,student_TT_local,2021.1.4,48.02345081116486,
,None,None,None,None,None,None,None,None,None,None,ordain,potent,6.5,7.5,video&audio/jackal_TT_3X.mp4,video&audio/sentence2_TT_3X.mp4,jackal,septic,None,,,,,,,,,,,,,,,,,,,,,,,,,,,0,5,5,13,,,,,,,,,,,,,,,,,,,,,,,,,,,,,,,,,,,,,,,,,,,,,,,,None,,,None, jackal,"['j', 'a', 'c', 'k', 'a', 'l', 'return']","[0.4974291999824345, 0.5694210999645293, 0.9213338000699878, 1.1454823999665678, 1.3216808000579476, 1.721449900069274, 1.9935485000023618]",,,,,,,,,,,,,,,,,,,,,,,,,,6,001,G,2023_Feb_16_1143,student_TT_local,2021.1.4,48.02345081116486,
,None,None,None,None,None,None,None,None,None,None,shrill,brazen,19.5,20.5,video&audio/picket_touch_edited.mp4,video&audio/Sentence3_touch_edited.mp4,picket,caviar,None,,,,,,,,,,,,,,,,,,,,,,,,,,,0,6,6,20,,,,,,,,,,,,,,,,,,,,,,,,,,,,,,,,,,,,,,,,,,,,,,,,None,,,None, picket,"['p', 'i', 'c', 'l', 'e', 't', 'backspace', 'backspace', 'backspace', 'k', 'e', 't', 'return']","[0.6806746000656858, 0.9928654000395909, 1.160427000024356, 1.5126503000501543, 1.6407997000496835, 1.736667999997735, 2.464833899983205, 2.624557500006631, 2.752747500082478, 3.5205301999812946, 3.6325687000062317, 3.7365417000837624, 4.000480800052173]",,,,,,,,,,,,,,,,,,,,,,,,,,6,001,G,2023_Feb_16_1143,student_TT_local,2021.1.4,48.02345081116486,
,None,None,None,None,None,None,None,None,None,None,fusion,critic,6.5,7.5,video&audio/forage_TT_3X.mp4,video&audio/sentence5_TT_3X.mp4,forage,zephyr,None,,,,,,,,,,,,,,,,,,,,,,,,,,,0,7,7,10,,,,,,,,,,,,,,,,,,,,,,,,,,,,,,,,,,,,,,,,,,,,,,,,None,,,None, forage,"['f', 'o', 'r', 'a', 'g', 'e', 'return']","[0.4033677999395877, 0.5946850000182167, 0.7466584999347106, 0.8186897999839857, 0.9871578000020236, 1.1627514999127015, 1.3311823999974877]",,,,,,,,,,,,,,,,,,,,,,,,,,6,001,G,2023_Feb_16_1143,student_TT_local,2021.1.4,48.02345081116486,
,None,None,None,None,None,None,None,None,None,None,herbal,deduct,6.5,7.5,video&audio/kipper_TT_3X.mp4,video&audio/sentence3_TT_3X.mp4,kipper,hearth,None,,,,,,,,,,,,,,,,,,,,,,,,,,,0,8,8,14,,,,,,,,,,,,,,,,,,,,,,,,,,,,,,,,,,,,,,,,,,,,,,,,None,,,None, kipper,"['k', 'i', 'bracketleft', 'bracketleft', 'e', 'r', 'backspace', 'backspace', 'backspace', 'backspace', 'p', 'p', 'e', 'r', 'return']","[0.6590732999611646, 0.9630954000167549, 1.1553199000190943, 1.3149799000239, 1.4511704000178725, 1.5715104999253526, 2.1874070999911055, 2.3471720999805257, 2.4750839999178424, 2.7070318999467418, 3.5551548999501392, 3.707022299990058, 3.787135499995202, 3.867144800024107, 3.963118899962865]",,,,,,,,,,,,,,,,,,,,,,,,,,6,001,G,2023_Feb_16_1143,student_TT_local,2021.1.4,48.02345081116486,
,None,None,None,None,None,None,None,None,None,None,allure,binder,19.5,20.5,video&audio/virile_touch_edited.mp4,video&audio/Sentence6_touch_edited.mp4,virile,campus,None,,,,,,,,,,,,,,,,,,,,,,,,,,,0,9,9,29,,,,,,,,,,,,,,,,,,,,,,,,,,,,,,,,,,,,,,,,,,,,,,,,None,,,None, virile,"['v', 'i', 'l', 'backspace', 'r', 'i', 'l', 'e', 'return']","[0.594520999933593, 0.7382745000068098, 1.0104993999702856, 1.9147331999847665, 2.2266944999573752, 2.3943753999192268, 2.5544188999338076, 2.6745175999822095, 2.874701799941249]",,,,,,,,,,,,,,,,,,,,,,,,,,6,001,G,2023_Feb_16_1143,student_TT_local,2021.1.4,48.02345081116486,
,None,None,None,None,None,None,None,None,None,None,divert,upkeep,19.5,20.5,video&audio/solemn_touch_edited.mp4,video&audio/Sentence2_touch_edited.mp4,solemn,meddle,None,,,,,,,,,,,,,,,,,,,,,,,,,,,0,10,10,25,,,,,,,,,,,,,,,,,,,,,,,,,,,,,,,,,,,,,,,,,,,,,,,,None,,,None, solemn,"['s', 'o', 'l', 'e', 'm', 'n', 'return']","[0.6068993000080809, 0.7588819999946281, 0.9992243000306189, 1.2151342000579461, 1.9910281000193208, 2.166925600031391, 2.9189061999786645]",,,,,,,,,,,,,,,,,,,,,,,,,,6,001,G,2023_Feb_16_1143,student_TT_local,2021.1.4,48.02345081116486,
,None,None,None,None,None,None,None,None,None,None,uphold,pursue,19.5,20.5,video&audio/obsess_touch_edited.mp4,video&audio/Sentence1_touch_edited.mp4,obsess,output,None,,,,,,,,,,,,,,,,,,,,,,,,,,,0,11,11,18,,,,,,,,,,,,,,,,,,,,,,,,,,,,,,,,,,,,,,,,,,,,,,,,None,,,None, obsess,"['o', 'b', 's', 'e', 's', 's', 'return']","[0.3706485000438988, 0.6587368999607861, 0.7944202000508085, 0.9305303000146523, 1.114507699967362, 1.3224826999939978, 1.56241500005126]",,,,,,,,,,,,,,,,,,,,,,,,,,6,001,G,2023_Feb_16_1143,student_TT_local,2021.1.4,48.02345081116486,
,None,None,None,None,None,None,None,None,None,None,shroud,sherry,6.5,7.5,video&audio/falter_TT_3X.mp4,video&audio/sentence4_TT_3X.mp4,falter,hamlet,None,,,,,,,,,,,,,,,,,,,,,,,,,,,0,12,12,9,,,,,,,,,,,,,,,,,,,,,,,,,,,,,,,,,,,,,,,,,,,,,,,,None,,,None, falter,"['f', 'a', 'l', 't', 'e', 'r', 'return']","[0.46846819994971156, 0.5243634999496862, 0.7644604999804869, 0.9403782000299543, 1.068513499922119, 1.2604928999207914, 1.5493077000137419]",,,,,,,,,,,,,,,,,,,,,,,,,,6,001,G,2023_Feb_16_1143,student_TT_local,2021.1.4,48.02345081116486,
,None,None,None,None,None,None,None,None,None,None,matron,legion,19.5,20.5,video&audio/subdue_touch_edited.mp4,video&audio/Sentence3_touch_edited.mp4,subdue,feudal,None,,,,,,,,,,,,,,,,,,,,,,,,,,,0,13,13,26,,,,,,,,,,,,,,,,,,,,,,,,,,,,,,,,,,,,,,,,,,,,,,,,None,,,None, subdue,"['s', 'u', 'b', 'd', 'u', 'e', 'return']","[0.444525400060229, 0.6441156000364572, 1.3159375000977889, 1.4519914000993595, 1.7000546000199392, 1.8203764000209048, 2.419848100049421]",,,,,,,,,,,,,,,,,,,,,,,,,,6,001,G,2023_Feb_16_1143,student_TT_local,2021.1.4,48.02345081116486,
,None,None,None,None,None,None,None,None,None,None,ration,parole,6.5,7.5,video&audio/devise_TT_3X.mp4,video&audio/sentence3_TT_3X.mp4,devise,befall,None,,,,,,,,,,,,,,,,,,,,,,,,,,,0,14,14,8,,,,,,,,,,,,,,,,,,,,,,,,,,,,,,,,,,,,,,,,,,,,,,,,None,,,None, devise,"['d', 'e', 'v', 'i', 's', 'e', 'return']","[0.3834828999824822, 0.40770940005313605, 0.7357678000116721, 0.9760637000435963, 1.4876534000504762, 1.599918600055389, 1.9439716000342742]",,,,,,,,,,,,,,,,,,,,,,,,,,6,001,G,2023_Feb_16_1143,student_TT_local,2021.1.4,48.02345081116486,
,"Remember to type as QUICKLY and ACCURATELY as possible after the 'get ready' prompt.

Ask the experimenter any questions now. Please put on the headphones.

You will get one practice trial. Press 'enter/return' when you are ready to start the practice.","Remember to type as QUICKLY and ACCURATELY as you can after the 'get ready' prompt.

Ask the experimenter any questions now. Please put on the headphones.

You will get one practice trial. Press 'enter/return' when you are ready to start the practice.",video&audio/Example_AOMI_total.png,1.8,0.7,None,None,None,None,None,ghetto,jargon,6.5,7.5,video&audio/botany_TT_3X.mp4,video&audio/sentence3_TT_3X.mp4,botany,oppose,None,,,,,,,,,,,,,,,,,,,,,,,,,,,0,15,15,2,,,,,,,,,,,,,,,,,,,,,,,,,,,,,,,,,,,,,,,,,,,,,,,,None,,,None, botany,"['b', 'o', 't', 'a', 'n', 'y', 'return']","[0.32765329990070313, 0.5036141999298707, 0.6637777999276295, 0.7997481999918818, 1.0082025999436155, 1.2556573998881504, 1.6323993999976665]",,,,,,,,,,,,,,,,,,,,,,,,,,6,001,G,2023_Feb_16_1143,student_TT_local,2021.1.4,48.02345081116486,
,None,None,None,None,None,None,None,None,None,None,mucous,musket,19.5,20.5,video&audio/plasma_touch_edited.mp4,video&audio/Sentence5_touch_edited.mp4,plasma,fungal,None,,,,,,,,,,,,,,,,,,,,,,,,,,,0,16,16,22,,,,,,,,,,,,,,,,,,,,,,,,,,,,,,,,,,,,,,,,,,,,,,,,None,,,None, plasma,"['p', 'l', 'a', 'm', 's', 'backspace', 'backspace', 's', 'a', 'return']","[0.3906335999490693, 0.710527699906379, 0.8869922999292612, 1.215191699913703, 1.4144639999140054, 2.1988322999095544, 2.3426860999315977, 2.558758999919519, 2.89475669991225, 3.134927599923685]",,,,,,,,,,,,,,,,,,,,,,,,,,6,001,G,2023_Feb_16_1143,student_TT_local,2021.1.4,48.02345081116486,
,None,None,None,None,None,None,None,None,None,None,ethnic,goblet,19.5,20.5,video&audio/subtle_touch_edited.mp4,video&audio/Sentence4_touch_edited.mp4,subtle,trench,None,,,,,,,,,,,,,,,,,,,,,,,,,,,0,17,17,27,,,,,,,,,,,,,,,,,,,,,,,,,,,,,,,,,,,,,,,,,,,,,,,,None,,,None, subtle,"['s', 'u', 'b', 't', 'l', 'e', 'return']","[0.44816490006633103, 0.6402535000815988, 0.8726734999800101, 1.1202478000195697, 1.4162184000015259, 1.576298400061205, 1.8405008000554517]",,,,,,,,,,,,,,,,,,,,,,,,,,6,001,G,2023_Feb_16_1143,student_TT_local,2021.1.4,48.02345081116486,
,None,None,None,None,None,None,None,None,None,None,defame,quarry,6.5,7.5,video&audio/frugal_TT_3X.mp4,video&audio/sentence6_TT_3X.mp4,frugal,patent,None,,,,,,,,,,,,,,,,,,,,,,,,,,,0,18,18,11,,,,,,,,,,,,,,,,,,,,,,,,,,,,,,,,,,,,,,,,,,,,,,,,None,,,['return'], frugal,"['f', 'r', 'u', 'g', 'a', 'l', 'return']","[0.6970940000610426, 0.8570611999602988, 1.0408193999901414, 1.2328540000598878, 1.296833600034006, 1.6569151000585407, 1.9368432000046596]",[0.015252500073984265],,,,,,,,,,,,,,,,,,,,,,,,,6,001,G,2023_Feb_16_1143,student_TT_local,2021.1.4,48.02345081116486,
,None,None,None,None,None,None,None,None,None,None,apathy,revolt,6.5,7.5,video&audio/cortex_TT_3X.mp4,video&audio/sentence6_TT_3X.mp4,cortex,joiner,None,,,,,,,,,,,,,,,,,,,,,,,,,,,0,19,19,5,,,,,,,,,,,,,,,,,,,,,,,,,,,,,,,,,,,,,,,,,,,,,,,,None,,,None, cortex,"['c', 'o', 'r', 't', 'e', 'x', 'return']","[0.4911171999992803, 0.6750155999325216, 1.090929799946025, 1.2749082000227645, 1.4188868999481201, 1.971082799951546, 2.115197299979627]",,,,,,,,,,,,,,,,,,,,,,,,,,6,001,G,2023_Feb_16_1143,student_TT_local,2021.1.4,48.02345081116486,
,"This is Section 2.

In this section, your task will be the same as before - that is, to type the word you see on the screen after the typing prompt. However, rather than just seeing the word before typing, you will also see a video of someone typing the same word you will need to type at various speeds. 

Press 'enter/return' to go to the next page.","This is Section 4. 

In this section, your task will be the same as before - that is, to type the word you see on the screen after the typing prompt. You will see a video again, like in Section 2, only this time, the video will show someone typing different words to what you must type at various speeds. 

Press 'enter/return' to go to the next page.",video&audio/Example_AOMI_layout.png,1.6,0.6,afford,19.5,20.5,video&audio/afford_touch_edited.mp4,video&audio/amount_touch_edited.mp4,breach,vanity,6.5,7.5,video&audio/ascend_TT_3X.mp4,video&audio/sentence1_TT_3X.mp4,ascend,hinder,1 = AOMIspec,,,,,,,,,,,,,,,,,,,,,,,,,,,0,20,20,0,,,,,,,,,,,,,,,,,,,,,,,,,,,,,,,,,,,,,,,,,,,,,,,,None,,,None, ascend,"['a', 's', 'c', 'e', 'n', 'd', 'return']","[0.44207260000985116, 0.5385044999420643, 0.9145203999942169, 1.050138199934736, 1.3381523999851197, 1.5304496999597177, 1.8422435999382287]",,,,,,,,,,,,,,,,,,,,,,,,,,6,001,G,2023_Feb_16_1143,student_TT_local,2021.1.4,48.02345081116486,
,None,None,None,None,None,None,None,None,None,None,mystic,infirm,6.5,7.5,video&audio/cervix_TT_3X.mp4,video&audio/sentence4_TT_3X.mp4,cervix,oblige,None,,,,,,,,,,,,,,,,,,,,,,,,,,,0,21,21,3,,,,,,,,,,,,,,,,,,,,,,,,,,,,,,,,,,,,,,,,,,,,,,,,None,,,None, cervix,"['c', 'e', 'r', 'v', 'i', 'x', 'return']","[0.3852494000457227, 0.5769624999957159, 0.7450455999933183, 1.081346599967219, 1.2729681000346318, 1.473001900012605, 1.6730689000105485]",,,,,,,,,,,,,,,,,,,,,,,,,,6,001,G,2023_Feb_16_1143,student_TT_local,2021.1.4,48.02345081116486,
,None,None,None,None,None,None,None,None,None,None,galley,strife,6.5,7.5,video&audio/debtor_TT_3X.mp4,video&audio/sentence2_TT_3X.mp4,debtor,delude,None,,,,,,,,,,,,,,,,,,,,,,,,,,,0,22,22,7,,,,,,,,,,,,,,,,,,,,,,,,,,,,,,,,,,,,,,,,,,,,,,,,None,,,None, debtor,"['d', 'e', 'b', 't', 'o', 'r', 'return']","[0.5464445000980049, 0.6665121000260115, 1.4746937000891194, 1.658415700076148, 2.803049100097269, 2.9625025000423193, 3.1144521000096574]",,,,,,,,,,,,,,,,,,,,,,,,,,6,001,G,2023_Feb_16_1143,student_TT_local,2021.1.4,48.02345081116486,
,None,None,None,None,None,None,None,None,None,None,entail,novice,6.5,7.5,video&audio/confer_TT_3X.mp4,video&audio/sentence5_TT_3X.mp4,confer,primal,None,,,,,,,,,,,,,,,,,,,,,,,,,,,0,23,23,4,,,,,,,,,,,,,,,,,,,,,,,,,,,,,,,,,,,,,,,,,,,,,,,,None,,,None, confer,"['c', 'o', 'n', 'f', 'e', 'r', 'return']","[0.7388764000497758, 0.9154015999520198, 1.0667160999728367, 1.1955829999642447, 1.3227856999728829, 1.48258780001197, 1.6266362000023946]",,,,,,,,,,,,,,,,,,,,,,,,,,6,001,G,2023_Feb_16_1143,student_TT_local,2021.1.4,48.02345081116486,
,None,None,None,None,None,None,None,None,None,None,warble,fodder,19.5,20.5,video&audio/ritual_touch_edited.mp4,video&audio/Sentence1_touch_edited.mp4,ritual,mangle,None,,,,,,,,,,,,,,,,,,,,,,,,,,,0,24,24,24,,,,,,,,,,,,,,,,,,,,,,,,,,,,,,,,,,,,,,,,,,,,,,,,None,,,None, ritual,"['r', 'i', 't', 'u', 'a', 'semicolon', 'l', 'backspace', 'l', 'return']","[0.5911612999625504, 0.751386999967508, 0.9199896999634802, 1.0153792999917641, 1.327746900031343, 1.4872340000001714, 1.4953293000580743, 2.439465600065887, 2.7035952999722213, 2.983122600009665]",,,,,,,,,,,,,,,,,,,,,,,,,,6,001,G,2023_Feb_16_1143,student_TT_local,2021.1.4,48.02345081116486,
,None,None,None,None,None,None,None,None,None,None,revoke,mirage,6.5,7.5,video&audio/covert_TT_3X.mp4,video&audio/sentence1_TT_3X.mp4,covert,shrewd,None,,,,,,,,,,,,,,,,,,,,,,,,,,,0,25,25,6,,,,,,,,,,,,,,,,,,,,,,,,,,,,,,,,,,,,,,,,,,,,,,,,None,,,None, covert,"['c', 'o', 'v', 'e', 'r', 't', 'return']","[0.7605766999768093, 0.9201612999895588, 1.2887286000186577, 1.5285869999788702, 1.6480436000274494, 2.0083506000228226, 2.2803063000319526]",,,,,,,,,,,,,,,,,,,,,,,,,,6,001,G,2023_Feb_16_1143,student_TT_local,2021.1.4,48.02345081116486,
,None,None,None,None,None,None,None,None,None,None,export,savant,19.5,20.5,video&audio/parcel_touch_edited.mp4,video&audio/Sentence2_touch_edited.mp4,parcel,cobble,None,,,,,,,,,,,,,,,,,,,,,,,,,,,0,26,26,19,,,,,,,,,,,,,,,,,,,,,,,,,,,,,,,,,,,,,,,,,,,,,,,,None,,,None, parcel,"['p', 'a', 'r', 'c', 'e', 'l', 'return']","[0.48702829994726926, 0.670609200024046, 0.8066445000004023, 1.1185783999972045, 1.2226576999528334, 1.4386922999983653, 1.7030339000048116]",,,,,,,,,,,,,,,,,,,,,,,,,,6,001,G,2023_Feb_16_1143,student_TT_local,2021.1.4,48.02345081116486,
,None,None,None,None,None,None,None,None,None,None,gullet,manure,19.5,20.5,video&audio/tariff_touch_edited.mp4,video&audio/Sentence5_touch_edited.mp4,tariff,parish,None,,,,,,,,,,,,,,,,,,,,,,,,,,,0,27,27,28,,,,,,,,,,,,,,,,,,,,,,,,,,,,,,,,,,,,,,,,,,,,,,,,None,,,None, tariff,"['t', 'a', 'r', 'i', 'f', 'f', 'return']","[0.4134855999145657, 0.4935039998963475, 0.7735210999380797, 0.9894060998922214, 1.1652763999300078, 1.3256328999996185, 1.4535609999438748]",,,,,,,,,,,,,,,,,,,,,,,,,,6,001,G,2023_Feb_16_1143,student_TT_local,2021.1.4,48.02345081116486,
,None,None,None,None,None,None,None,None,None,None,linear,impose,19.5,20.5,video&audio/pulpit_touch_edited.mp4,video&audio/Sentence6_touch_edited.mp4,pulpit,girdle,None,,,,,,,,,,,,,,,,,,,,,,,,,,,0,28,28,23,,,,,,,,,,,,,,,,,,,,,,,,,,,,,,,,,,,,,,,,,,,,,,,,None,,,None, pulpit,"['p', 'u', 'l', 'p', 'u', 'backspace', 'i', 't', 'return']","[0.43313450005371124, 0.6013550000498071, 0.9775786000536755, 1.2575232000090182, 1.4892755000619218, 2.1050500000128523, 2.777597700012848, 2.889186599990353, 3.041003299993463]",,,,,,,,,,,,,,,,,,,,,,,,,,6,001,G,2023_Feb_16_1143,student_TT_local,2021.1.4,48.02345081116486,
,None,None,None,None,None,None,None,None,None,None,mussel,satire,19.5,20.5,video&audio/piston_touch_edited.mp4,video&audio/Sentence4_touch_edited.mp4,piston,induce,None,,,,,,,,,,,,,,,,,,,,,,,,,,,0,29,29,21,,,,,,,,,,,,,,,,,,,,,,,,,,,,,,,,,,,,,,,,,,,,,,,,None,,,None, piston,"['p', 'i', 's', 't', 'o', 'n', 'return']","[0.32387119997292757, 0.5399076999165118, 0.6679257999639958, 0.8758399999933317, 1.1801650000270456, 1.7801159999798983, 2.0760765000013635]",,,,,,,,,,,,,,,,,,,,,,,,,,6,001,G,2023_Feb_16_1143,student_TT_local,2021.1.4,48.02345081116486,
,,,,,,,,,,,,,,,,,,,,typingRatingScale.png,"How would you rate your typing performance in the previous section?

Press a number on your keyboard according to the rating scale below to give your answer. Your first answer will be accepted.",,,,,,,,,,,,,,,,,,,,,,,,,,,,,0,0,0,0,,,,,,,,,,,,,,,,,,,,,,,,,,,,,,,,,,,,,,,,,,,,,,,,,,,,['3'],[4.717124900082126],,,,,,,,,,,,,,,,,,,,,,,6,001,G,2023_Feb_16_1143,student_TT_local,2021.1.4,48.02345081116486,
,,,,,,,,,,,,,,,,,,,,visualImageryScale.png,"While imagining yourself typing, how clear was your visual image?

Press a number on your keyboard according to the rating scale below to give your answer. Your first answer will be accepted.",,,,,,,,,,,,,,,,,,,,,,,,,,,,,0,1,1,1,,,,,,,,,,,,,,,,,,,,,,,,,,,,,,,,,,,,,,,,,,,,,,,,,,,,['2'],[5.087138499948196],,,,,,,,,,,,,,,,,,,,,,,6,001,G,2023_Feb_16_1143,student_TT_local,2021.1.4,48.02345081116486,
,,,,,,,,,,,,,,,,,,,,kinestheticImageryScale.png,"While imagining yourself typing, how intense were the sensations associated with the imagined movement?

Press a number on your keyboard according to the rating scale below to give your answer. Your first answer will be accepted.",,,,,,,,,,,,,,,,,,,,,,,,,,,,,0,2,2,2,,,,,,,,,,,,,,,,,,,,,,,,,,,,,,,,,,,,,,,,,,,,,,,,,,,,['2'],[5.587353499955498],,,,,,,,,,,,,,,,,,,,,,,6,001,G,2023_Feb_16_1143,student_TT_local,2021.1.4,48.02345081116486,
,None,None,None,None,None,None,None,None,None,None,shrill,brazen,19.5,20.5,video&audio/picket_touch_edited.mp4,video&audio/Sentence3_touch_edited.mp4,picket,caviar,None,,,,,,,,,,,,,,,,,,,,,,,,,,,,,,,,,,,,,,,,,,,0,0,0,20,,,,,,,,,,,,,,,,,,,,,,,,,,,,,,,,,,,,,,,,,,2754.912441799999,2761.430680499994,None, butter,"['b', 'u', 't', 't', 'e', 'r', 'return']","[0.7876566000049934, 0.9232884000521153, 1.083147400058806, 1.21922850003466, 1.2912820000201464, 1.4034210999961942, 1.4993027000455186]",2783.15786320006,2802.6595093000215,None, braxen,"['b', 'r', 'a', 'x', 'e', 'n', 'return']","[0.8549903000239283, 0.9268703000852838, 1.1029691000003368, 1.7509149999823421, 1.9434475000016391, 2.215504900086671, 2.559288699994795]",,,,,,,,,,,6,001,G,2023_Feb_16_1143,student_TT_local,2021.1.4,48.02345081116486,
,None,None,None,None,None,None,None,None,None,None,entail,novice,6.5,7.5,video&audio/confer_TT_3X.mp4,video&audio/sentence5_TT_3X.mp4,confer,primal,None,,,,,,,,,,,,,,,,,,,,,,,,,,,,,,,,,,,,,,,,,,,0,1,1,4,,,,,,,,,,,,,,,,,,,,,,,,,,,,,,,,,,,,,,,,,,,,,,,,2806.262195499963,2812.7790523000294,None, novice,"['n', 'o', 'v', 'i', 'c', 'e', 'return']","[0.8227263999870047, 1.1426660999422893, 1.3511006999760866, 1.4872678000247106, 1.655097399954684, 1.734502699924633, 2.014605399919674]",,,,,,,,,,,6,001,G,2023_Feb_16_1143,student_TT_local,2021.1.4,48.02345081116486,
,"This is Section 2.

In this section, your task will be the same as before - that is, to type the word you see on the screen after the typing prompt. However, rather than just seeing the word before typing, you will also see a video of someone typing the same word you will need to type at various speeds. 

Press 'enter/return' to go to the next page.","This is Section 4. 

In this section, your task will be the same as before - that is, to type the word you see on the screen after the typing prompt. You will see a video again, like in Section 2, only this time, the video will show someone typing different words to what you must type at various speeds. 

Press 'enter/return' to go to the next page.",video&audio/Example_AOMI_layout.png,1.6,0.6,afford,19.5,20.5,video&audio/afford_touch_edited.mp4,video&audio/amount_touch_edited.mp4,breach,vanity,6.5,7.5,video&audio/ascend_TT_3X.mp4,video&audio/sentence1_TT_3X.mp4,ascend,hinder,1 = AOMIspec,,,,,,,,,,,,,,,,,,,,,,,,,,,,,,,,,,,,,,,,,,,0,2,2,0,,,,,,,,,,,,,,,,,,,,,,,,,,,,,,,,,,,,,,,,,,,,,,,,2815.823450500029,2822.3403734000167,None, vanit,"['v', 'a', 'n', 'i', 't', 'y', 'return']","[1.0132971999701113, 1.0773799000307918, 1.277427399996668, 1.429291500011459, 1.6053948999615386, 1.6215213999385014, 1.8617281999904662]",,,,,,,,,,,6,001,G,2023_Feb_16_1143,student_TT_local,2021.1.4,48.02345081116486,
,None,None,None,None,None,None,None,None,None,None,export,savant,19.5,20.5,video&audio/parcel_touch_edited.mp4,video&audio/Sentence2_touch_edited.mp4,parcel,cobble,None,,,,,,,,,,,,,,,,,,,,,,,,,,,,,,,,,,,,,,,,,,,0,3,3,19,,,,,,,,,,,,,,,,,,,,,,,,,,,,,,,,,,,,,,,,,,,,,,,,2825.239853300038,2844.7541302000172,None, savant,"['d', 'a', 's', 'backspace', 'backspace', 's', 'a', 'v', 'a', 'n', 't', 'return']","[0.4083065000595525, 0.5924042999977246, 0.6004557000705972, 1.7444289000704885, 1.864407300017774, 2.008748200023547, 2.112791100051254, 2.4968709000386298, 2.704567800043151, 2.8324056999990717, 2.9767158000031486, 3.176564500085078]",,,,,,,,,,,6,001,G,2023_Feb_16_1143,student_TT_local,2021.1.4,48.02345081116486,
,None,None,None,None,None,None,None,None,None,None,allure,binder,19.5,20.5,video&audio/virile_touch_edited.mp4,video&audio/Sentence6_touch_edited.mp4,virile,campus,None,,,,,,,,,,,,,,,,,,,,,,,,,,,,,,,,,,,,,,,,,,,0,4,4,29,,,,,,,,,,,,,,,,,,,,,,,,,,,,,,,,,,,,,,,,,,,,,,,,2848.966771300067,2868.4810363000724,None, binder,"['b', 'o', 'n', 'd', 'e', 'r', 'backspace', 'backspace', 'backspace', 'backspace', 'backspace', 'i', 'b', 'backspace', 'n', 'd', 'e', 'r', 'bracketright', 'backspace', 'return']","[0.5048552999505773, 0.6728343999711797, 0.9369957000017166, 1.0407644000370055, 1.1851060999324545, 1.3928861999884248, 1.8490337999537587, 1.9450664999894798, 2.0647762999869883, 2.185133400023915, 2.2887390999821946, 2.920898500015028, 3.1367666999576613, 3.624780899961479, 3.9849761000368744, 4.072918599937111, 4.177099299966358, 4.304813300026581, 4.425147400004789, 5.128797200042754, 5.321189500042237]",,,,,,,,,,,6,001,G,2023_Feb_16_1143,student_TT_local,2021.1.4,48.02345081116486,
,None,None,None,None,None,None,None,None,None,None,ethnic,goblet,19.5,20.5,video&audio/subtle_touch_edited.mp4,video&audio/Sentence4_touch_edited.mp4,subtle,trench,None,,,,,,,,,,,,,,,,,,,,,,,,,,,,,,,,,,,,,,,,,,,0,5,5,27,,,,,,,,,,,,,,,,,,,,,,,,,,,,,,,,,,,,,,,,,,,,,,,,2874.8380027000094,2894.3529288000427,None, goblet,"['g', 'o', 'b', 'l', 'e', 't', 'return']","[0.7769450000487268, 1.2406495000468567, 1.392643400002271, 1.552649199962616, 1.6807204999495298, 1.7924849999835715, 1.9045345999766141]",,,,,,,,,,,6,001,G,2023_Feb_16_1143,student_TT_local,2021.1.4,48.02345081116486,
,None,None,None,None,None,None,None,None,None,None,defame,quarry,6.5,7.5,video&audio/frugal_TT_3X.mp4,video&audio/sentence6_TT_3X.mp4,frugal,patent,None,,,,,,,,,,,,,,,,,,,,,,,,,,,,,,,,,,,,,,,,,,,0,6,6,11,,,,,,,,,,,,,,,,,,,,,,,,,,,,,,,,,,,,,,,,,,,,,,,,2897.292741699959,2903.810193100013,None, quarru,"['q', 'u', 'a', 'r', 'r', 'u', 'return']","[1.1932295999722555, 1.3292413000017405, 1.4892191999824718, 1.8973276000469923, 2.0498227999778464, 2.3854119000025094, 2.649410300073214]",,,,,,,,,,,6,001,G,2023_Feb_16_1143,student_TT_local,2021.1.4,48.02345081116486,
,None,None,None,None,None,None,None,None,None,None,warble,fodder,19.5,20.5,video&audio/ritual_touch_edited.mp4,video&audio/Sentence1_touch_edited.mp4,ritual,mangle,None,,,,,,,,,,,,,,,,,,,,,,,,,,,,,,,,,,,,,,,,,,,0,7,7,24,,,,,,,,,,,,,,,,,,,,,,,,,,,,,,,,,,,,,,,,,,,,,,,,2907.5011910999892,2927.0157806000207,None, fodder,"['f', 'o', 'f', 'backspace', 'd', 'd', 'e', 'r', 'return']","[0.7873389000305906, 0.9394104999955744, 1.091506200027652, 2.275248400052078, 2.4833492999896407, 2.6271764000412077, 2.723325700033456, 2.8116317000240088, 3.0034334000665694]",,,,,,,,,,,6,001,G,2023_Feb_16_1143,student_TT_local,2021.1.4,48.02345081116486,
,None,None,None,None,None,None,None,None,None,None,herbal,deduct,6.5,7.5,video&audio/kipper_TT_3X.mp4,video&audio/sentence3_TT_3X.mp4,kipper,hearth,None,,,,,,,,,,,,,,,,,,,,,,,,,,,,,,,,,,,,,,,,,,,0,8,8,14,,,,,,,,,,,,,,,,,,,,,,,,,,,,,,,,,,,,,,,,,,,,,,,,2931.0604135000613,2937.57767290005,None, deduct,"['d', 'e', 'd', 'u', 'c', 't', 'return']","[0.8966532999183983, 1.0170285999774933, 1.2490623999619856, 1.552849999978207, 1.6968095999909565, 1.9132550999056548, 2.2489876999752596]",,,,,,,,,,,6,001,G,2023_Feb_16_1143,student_TT_local,2021.1.4,48.02345081116486,
,None,None,None,None,None,None,None,None,None,None,mystic,infirm,6.5,7.5,video&audio/cervix_TT_3X.mp4,video&audio/sentence4_TT_3X.mp4,cervix,oblige,None,,,,,,,,,,,,,,,,,,,,,,,,,,,,,,,,,,,,,,,,,,,0,9,9,3,,,,,,,,,,,,,,,,,,,,,,,,,,,,,,,,,,,,,,,,,,,,,,,,2940.8721794000594,2947.3886425000383,None, infirm,"['i', 'n', 'f', 'i', 'r', 'm', 'return']","[0.9496727000223473, 1.1336079000029713, 1.8935739999869838, 2.1896045999601483, 2.3256792000029236, 2.429623999982141, 2.622094999998808]",,,,,,,,,,,6,001,G,2023_Feb_16_1143,student_TT_local,2021.1.4,48.02345081116486,
,None,None,None,None,None,None,None,None,None,None,linear,impose,19.5,20.5,video&audio/pulpit_touch_edited.mp4,video&audio/Sentence6_touch_edited.mp4,pulpit,girdle,None,,,,,,,,,,,,,,,,,,,,,,,,,,,,,,,,,,,,,,,,,,,0,10,10,23,,,,,,,,,,,,,,,,,,,,,,,,,,,,,,,,,,,,,,,,,,,,,,,,3095.0428995999973,3114.559616900049,None, impose,"['i', 'm', 'p', 'o', 's', 'e', 'return']","[0.4686902000103146, 0.6445068999892101, 0.868552100029774, 1.0607749000191689, 1.500484799966216, 1.6447641999693587, 1.90857650001999]",,,,,,,,,,,6,001,G,2023_Feb_16_1143,student_TT_local,2021.1.4,48.02345081116486,
,None,None,None,None,None,None,None,None,None,None,mucous,musket,19.5,20.5,video&audio/plasma_touch_edited.mp4,video&audio/Sentence5_touch_edited.mp4,plasma,fungal,None,,,,,,,,,,,,,,,,,,,,,,,,,,,,,,,,,,,,,,,,,,,0,11,11,22,,,,,,,,,,,,,,,,,,,,,,,,,,,,,,,,,,,,,,,,,,,,,,,,3117.4975539000006,3137.012436100049,None, musket,"['m', 'u', 's', 'k', 'e', 't', 'return']","[0.7105715000070632, 0.8782136999070644, 1.00635489996057, 1.3184694999363273, 1.4063301999121904, 1.5343081000028178, 1.6947414999594912]",,,,,,,,,,,6,001,G,2023_Feb_16_1143,student_TT_local,2021.1.4,48.02345081116486,
,None,None,None,None,None,None,None,None,None,None,portal,murmur,19.5,20.5,video&audio/neural_touch_edited.mp4,video&audio/Sentence6_touch_edited.mp4,neural,clergy,None,,,,,,,,,,,,,,,,,,,,,,,,,,,,,,,,,,,,,,,,,,,0,12,12,17,,,,,,,,,,,,,,,,,,,,,,,,,,,,,,,,,,,,,,,,,,,,,,,,3139.745949700009,3159.2598283999832,None, murmer,"['m', 'u', 'r', 'm', 'e', 'w', 'r', 'backspace', 'backspace', 'r', 'return']","[0.7488619999494404, 0.9570185999618843, 1.2368163999635726, 1.3811850999481976, 1.5406829999992624, 1.5648401000071317, 1.604891199967824, 2.325015499955043, 2.46876970003359, 3.2287721999455243, 3.4129176000133157]",,,,,,,,,,,6,001,G,2023_Feb_16_1143,student_TT_local,2021.1.4,48.02345081116486,
,None,None,None,None,None,None,None,None,None,None,mussel,satire,19.5,20.5,video&audio/piston_touch_edited.mp4,video&audio/Sentence4_touch_edited.mp4,piston,induce,None,,,,,,,,,,,,,,,,,,,,,,,,,,,,,,,,,,,,,,,,,,,0,13,13,21,,,,,,,,,,,,,,,,,,,,,,,,,,,,,,,,,,,,,,,,,,,,,,,,3163.700197300059,3183.215685500065,None, satire,"['s', 'a', 't', 'i', 'r', 'e', 'pound', 'backspace', 'return']","[0.3610656999517232, 0.4570758999325335, 0.6413711999775842, 0.9290953999152407, 1.0170695999404415, 1.0810153998900205, 1.2890031998977065, 1.977303099934943, 2.1291288998909295]",,,,,,,,,,,6,001,G,2023_Feb_16_1143,student_TT_local,2021.1.4,48.02345081116486,
,None,None,None,None,None,None,None,None,None,None,apathy,revolt,6.5,7.5,video&audio/cortex_TT_3X.mp4,video&audio/sentence6_TT_3X.mp4,cortex,joiner,None,,,,,,,,,,,,,,,,,,,,,,,,,,,,,,,,,,,,,,,,,,,0,14,14,5,,,,,,,,,,,,,,,,,,,,,,,,,,,,,,,,,,,,,,,,,,,,,,,,3186.3855247000465,3192.90203560004,None, revolt,"['r', 'e', 'v', 'o', 'l', 't', 'return']","[0.7719032999593765, 0.8439035000046715, 1.1957385999849066, 1.3637333998922259, 1.515818199957721, 1.6676920999307185, 1.8598272999515757]",,,,,,,,,,,6,001,G,2023_Feb_16_1143,student_TT_local,2021.1.4,48.02345081116486,
,None,None,None,None,None,None,None,None,None,None,origin,coerce,19.5,20.5,video&audio/malady_touch_edited.mp4,video&audio/Sentence4_touch_edited.mp4,malady,tandem,None,,,,,,,,,,,,,,,,,,,,,,,,,,,,,,,,,,,,,,,,,,,0,15,15,15,,,,,,,,,,,,,,,,,,,,,,,,,,,,,,,,,,,,,,,,,,,,,,,,3195.8007012000307,3215.316172800027,None, coerce,"['c', 'o', 'e', 'r', 'c', 'e', 'return']","[0.7218009000644088, 0.8898262000875548, 1.0097559000132605, 1.1297363000921905, 1.417627300019376, 1.513615500065498, 1.6902307000709698]",,,,,,,,,,,6,001,G,2023_Feb_16_1143,student_TT_local,2021.1.4,48.02345081116486,
,None,None,None,None,None,None,None,None,None,None,ordain,potent,6.5,7.5,video&audio/jackal_TT_3X.mp4,video&audio/sentence2_TT_3X.mp4,jackal,septic,None,,,,,,,,,,,,,,,,,,,,,,,,,,,,,,,,,,,,,,,,,,,0,16,16,13,,,,,,,,,,,,,,,,,,,,,,,,,,,,,,,,,,,,,,,,,,,,,,,,3218.0486419000663,3224.564895599964,None, potent,"['p', 'o', 't', 'e', 'n', 't', 'return']","[0.8137511999811977, 0.9814387999940664, 1.1259048000210896, 1.2059943999629468, 1.3821361999725923, 1.4774576999479905, 1.7174890999449417]",,,,,,,,,,,6,001,G,2023_Feb_16_1143,student_TT_local,2021.1.4,48.02345081116486,
,"While you watch the video, imagine yourself typing the word on the screen, like how you did in the imagery practice. While you watch the video and imagine this, rest your hands on your keyboard but DO NOT type until AFTER you see the typing prompt.

Press 'enter/return' to go to the next page.","While watching the video, imagine yourself typing the word on the screen, like how you did in the imagery practice. While you watch the video and imagine this, rest your hands on your keyboard but DO NOT type until AFTER you see the typing prompt.

Press 'enter/return' to go to the next page.",video&audio/Example_AOMI_imagine.png,1.6,1,butter,6.5,7.5,video&audio/butter_TT_3X.mp4,video&audio/amount_TT_3X.mp4,eatery,plight,6.5,7.5,video&audio/belfry_TT_3X.mp4,video&audio/sentence2_TT_3X.mp4,belfry,metric,2 = AOMIgen,,,,,,,,,,,,,,,,,,,,,,,,,,,,,,,,,,,,,,,,,,,0,17,17,1,,,,,,,,,,,,,,,,,,,,,,,,,,,,,,,,,,,,,,,,,,,,,,,,3227.3182242000476,3233.8352584000677,None, plight,"['p', 'l', 'u', 'i', 'g', 'backspace', 'backspace', 'backspace', 'i', 'g', 'h', 't', 'return']","[0.26924729999154806, 0.7256181000266224, 0.925384399946779, 0.9333373999688774, 1.0692536999704316, 1.781387499999255, 1.909345299936831, 2.3013774999417365, 2.6935889000305906, 2.7893850000109524, 2.8534257999854162, 2.9813633000012487, 3.0932707999600098]",,,,,,,,,,,6,001,G,2023_Feb_16_1143,student_TT_local,2021.1.4,48.02345081116486,
,None,None,None,None,None,None,None,None,None,None,galley,strife,6.5,7.5,video&audio/debtor_TT_3X.mp4,video&audio/sentence2_TT_3X.mp4,debtor,delude,None,,,,,,,,,,,,,,,,,,,,,,,,,,,,,,,,,,,,,,,,,,,0,18,18,7,,,,,,,,,,,,,,,,,,,,,,,,,,,,,,,,,,,,,,,,,,,,,,,,3237.962115500006,3244.4795418999856,None, strife,"['s', 't', 'r', 'i', 'f', 'e', 'return']","[0.4358435000758618, 0.5796700000064448, 0.6515352000715211, 0.7953947000205517, 0.9874536000424996, 1.0994624000741169, 1.6914441001135856]",,,,,,,,,,,6,001,G,2023_Feb_16_1143,student_TT_local,2021.1.4,48.02345081116486,
,None,None,None,None,None,None,None,None,None,None,nettle,convoy,19.5,20.5,video&audio/matrix_touch_edited.mp4,video&audio/Sentence5_touch_edited.mp4,matrix,jailer,None,,,,,,,,,,,,,,,,,,,,,,,,,,,,,,,,,,,,,,,,,,,0,19,19,16,,,,,,,,,,,,,,,,,,,,,,,,,,,,,,,,,,,,,,,,,,,,,,,,3247.2110583999893,3266.7270001000725,None, convoy,"['c', 'o', 'n', 'v', 'o', 'y', 'return']","[0.6921010999940336, 0.8281505999621004, 1.1481358000310138, 1.316109100007452, 1.588223799946718, 1.764156199991703, 2.0605429999995977]",,,,,,,,,,,6,001,G,2023_Feb_16_1143,student_TT_local,2021.1.4,48.02345081116486,
,None,None,None,None,None,None,None,None,None,None,gullet,manure,19.5,20.5,video&audio/tariff_touch_edited.mp4,video&audio/Sentence5_touch_edited.mp4,tariff,parish,None,,,,,,,,,,,,,,,,,,,,,,,,,,,,,,,,,,,,,,,,,,,0,20,20,28,,,,,,,,,,,,,,,,,,,,,,,,,,,,,,,,,,,,,,,,,,,,,,,,3635.646933400072,3655.161315300036,None, manure,"['m', 'a', 'n', 'u', 'e', 'return']","[0.9334844999248162, 1.0136746999341995, 1.5575151999946684, 1.7415955999167636, 1.9573713999707252, 2.2215540999313816]",,,,,,,,,,,6,001,G,2023_Feb_16_1143,student_TT_local,2021.1.4,48.02345081116486,
,None,None,None,None,None,None,None,None,None,None,shroud,sherry,6.5,7.5,video&audio/falter_TT_3X.mp4,video&audio/sentence4_TT_3X.mp4,falter,hamlet,None,,,,,,,,,,,,,,,,,,,,,,,,,,,,,,,,,,,,,,,,,,,0,21,21,9,,,,,,,,,,,,,,,,,,,,,,,,,,,,,,,,,,,,,,,,,,,,,,,,3658.415475900052,3664.9313925000606,None, sherry,"['s', 'h', 'e', 'r', 'r', 'y', 'return']","[0.6790854999562725, 0.8471025000326335, 1.207167400047183, 1.3990959000075236, 1.5510613999795169, 1.7751285000704229, 1.9831430000485852]",,,,,,,,,,,6,001,G,2023_Feb_16_1143,student_TT_local,2021.1.4,48.02345081116486,
,"Remember to type as QUICKLY and ACCURATELY as possible after the 'get ready' prompt.

Ask the experimenter any questions now. Please put on the headphones.

You will get one practice trial. Press 'enter/return' when you are ready to start the practice.","Remember to type as QUICKLY and ACCURATELY as you can after the 'get ready' prompt.

Ask the experimenter any questions now. Please put on the headphones.

You will get one practice trial. Press 'enter/return' when you are ready to start the practice.",video&audio/Example_AOMI_total.png,1.8,0.7,None,None,None,None,None,ghetto,jargon,6.5,7.5,video&audio/botany_TT_3X.mp4,video&audio/sentence3_TT_3X.mp4,botany,oppose,None,,,,,,,,,,,,,,,,,,,,,,,,,,,,,,,,,,,,,,,,,,,0,22,22,2,,,,,,,,,,,,,,,,,,,,,,,,,,,,,,,,,,,,,,,,,,,,,,,,3667.9547522000503,3674.4718090000097,None, jargon,"['j', 'a', 'r', 'g', 'o', 'n', 'return']","[0.8016946000279859, 0.8656020000344142, 1.0255887999664992, 1.2497218999778852, 1.4655341999605298, 1.6576243999879807, 1.8974211999448016]",,,,,,,,,,,6,001,G,2023_Feb_16_1143,student_TT_local,2021.1.4,48.02345081116486,
,None,None,None,None,None,None,None,None,None,None,uphold,pursue,19.5,20.5,video&audio/obsess_touch_edited.mp4,video&audio/Sentence1_touch_edited.mp4,obsess,output,None,,,,,,,,,,,,,,,,,,,,,,,,,,,,,,,,,,,,,,,,,,,0,23,23,18,,,,,,,,,,,,,,,,,,,,,,,,,,,,,,,,,,,,,,,,,,,,,,,,3677.4130739000393,3696.9274583000224,None, pursue,"['p', 'u', 'r', 's', 'u', 'e', 'return']","[0.9137642000569031, 1.1781042000511661, 1.4498715000227094, 1.6179467999609187, 1.9140419999603182, 2.0417737000389025, 2.2898452000226825]",,,,,,,,,,,6,001,G,2023_Feb_16_1143,student_TT_local,2021.1.4,48.02345081116486,
,None,None,None,None,None,None,None,None,None,None,tamper,sonnet,6.5,7.5,video&audio/hippie_TT_3X.mp4,video&audio/sentence1_TT_3X.mp4,hippie,innate,None,,,,,,,,,,,,,,,,,,,,,,,,,,,,,,,,,,,,,,,,,,,0,24,24,12,,,,,,,,,,,,,,,,,,,,,,,,,,,,,,,,,,,,,,,,,,,,,,,,3700.262519699987,3706.7808948999736,None, sonnet,"['s', 'o', 'n', 'n', 'e', 't', 'return']","[0.6144454000750557, 0.790555200073868, 1.0226832000771537, 1.1423961000982672, 1.1986452999990433, 1.310903700068593, 1.5345349000999704]",,,,,,,,,,,6,001,G,2023_Feb_16_1143,student_TT_local,2021.1.4,48.02345081116486,
,None,None,None,None,None,None,None,None,None,None,divert,upkeep,19.5,20.5,video&audio/solemn_touch_edited.mp4,video&audio/Sentence2_touch_edited.mp4,solemn,meddle,None,,,,,,,,,,,,,,,,,,,,,,,,,,,,,,,,,,,,,,,,,,,0,25,25,25,,,,,,,,,,,,,,,,,,,,,,,,,,,,,,,,,,,,,,,,,,,,,,,,3709.346970399958,3728.8614903000416,None, upkeep,"['u', 'k', 'e', 'e', 'p', 'return', 'delete']","[0.8033730000024661, 1.3715608000056818, 1.5796780999517068, 1.7395929999183863, 1.8516158999409527, 2.0593630999792367, 2.067884499905631]",,,,,,,,,,,6,001,G,2023_Feb_16_1143,student_TT_local,2021.1.4,48.02345081116486,
,None,None,None,None,None,None,None,None,None,None,revoke,mirage,6.5,7.5,video&audio/covert_TT_3X.mp4,video&audio/sentence1_TT_3X.mp4,covert,shrewd,None,,,,,,,,,,,,,,,,,,,,,,,,,,,,,,,,,,,,,,,,,,,0,26,26,6,,,,,,,,,,,,,,,,,,,,,,,,,,,,,,,,,,,,,,,,,,,,,,,,3731.9688998999773,3738.4854944000253,None, mirage,"['m', 'i', 'r', 'a', 'g', 'e', 'return']","[0.739720500074327, 0.979495600098744, 1.1155697000212967, 1.179528700071387, 1.4115464000497013, 1.5075786000816151, 1.8036250000586733]",,,,,,,,,,,6,001,G,2023_Feb_16_1143,student_TT_local,2021.1.4,48.02345081116486,
,None,None,None,None,None,None,None,None,None,None,fusion,critic,6.5,7.5,video&audio/forage_TT_3X.mp4,video&audio/sentence5_TT_3X.mp4,forage,zephyr,None,,,,,,,,,,,,,,,,,,,,,,,,,,,,,,,,,,,,,,,,,,,0,27,27,10,,,,,,,,,,,,,,,,,,,,,,,,,,,,,,,,,,,,,,,,,,,,,,,,3741.3219899999676,3747.8387363000074,None, critic,"['c', 'r', 'i', 't', 'i', 'c', 'return']","[1.3542209999868646, 1.5701017000246793, 1.7781098999548703, 1.882650199928321, 2.0019456000300124, 2.226444400032051, 2.4426486999727786]",,,,,,,,,,,6,001,G,2023_Feb_16_1143,student_TT_local,2021.1.4,48.02345081116486,
,None,None,None,None,None,None,None,None,None,None,ration,parole,6.5,7.5,video&audio/devise_TT_3X.mp4,video&audio/sentence3_TT_3X.mp4,devise,befall,None,,,,,,,,,,,,,,,,,,,,,,,,,,,,,,,,,,,,,,,,,,,0,28,28,8,,,,,,,,,,,,,,,,,,,,,,,,,,,,,,,,,,,,,,,,,,,,,,,,3751.3214629000286,3757.8372914000647,None, parole,"['p', 'a', 'r', 'i', 'backspace', 'o', 'l', 'e', 'return']","[0.7010536999441683, 0.7490484999725595, 0.9091031999560073, 1.069126599933952, 1.6371604999294505, 2.0450170999392867, 2.3093620999716222, 2.4211338999448344, 2.6212973999790847]",,,,,,,,,,,6,001,G,2023_Feb_16_1143,student_TT_local,2021.1.4,48.02345081116486,
,None,None,None,None,None,None,None,None,None,None,matron,legion,19.5,20.5,video&audio/subdue_touch_edited.mp4,video&audio/Sentence3_touch_edited.mp4,subdue,feudal,None,,,,,,,,,,,,,,,,,,,,,,,,,,,,,,,,,,,,,,,,,,,0,29,29,26,,,,,,,,,,,,,,,,,,,,,,,,,,,,,,,,,,,,,,,,,,,,,,,,3761.4857729000505,3781.001482499996,None, legion,"['l', 'e', 'g', 'i', 'o', 'n', 'return']","[0.7602877999888733, 0.8802463000174612, 0.9762834999710321, 1.1364044999936596, 1.2243579999776557, 1.3362521999515593, 1.560281699988991]",,,,,,,,,,,6,001,G,2023_Feb_16_1143,student_TT_local,2021.1.4,48.02345081116486,
,,,,,,,,,,,,,,,,,,,,typingRatingScale.png,"How would you rate your typing performance in the previous section?

Press a number on your keyboard according to the rating scale below to give your answer. Your first answer will be accepted.",,,,,,,,,,,,,,,,,,,,,,,,,,,,,,,,,,,,,,,,,,,,,0,0,0,0,,,,,,,,,,,,,,,,,,,,,,,,,,,,,,,,,,,,,,,,,,,,,,,,,,['1'],[4.5412514000199735],,,,,,,,,6,001,G,2023_Feb_16_1143,student_TT_local,2021.1.4,48.02345081116486,
,,,,,,,,,,,,,,,,,,,,imageryCheckScale.png,"In the previous section did you imagine yourself typing?

Press a number on your keyboard according to the rating scale below to give your answer. Your first answer will be accepted.",,,,,,,,,,,,,,,,,,,,,,,,,,,,,,,,,,,,,,,,,,,,,0,1,1,1,,,,,,,,,,,,,,,,,,,,,,,,,,,,,,,,,,,,,,,,,,,,,,,,,,['1'],[10.296957200043835],,,,,,,,,6,001,G,2023_Feb_16_1143,student_TT_local,2021.1.4,48.02345081116486,
,None,None,None,None,None,None,None,None,None,None,matron,legion,19.5,20.5,video&audio/subdue_touch_edited.mp4,video&audio/Sentence3_touch_edited.mp4,subdue,feudal,None,,,,,,,,,,,,,,,,,,,,,,,,,,,,,,,,,,,,,,,,,,,,,,,,,,,,,,,,,,,0,0,0,26,,,,,,,,,,,,,,,,None,"['b', 'u', 't', 't', 'e', 'r', 'return']","[0.740003400016576, 0.8921487999614328, 1.0522896000184119, 1.220071299932897, 1.3243062999099493, 1.444941799971275, 1.6123445999110118]",,,,,,,,,,,,,,,,,,,,,,None,None, feudal,"['f', 'e', 'u', 'd', 'a', 'l', 'return']","[0.8574741000775248, 0.9376487000845373, 1.0978086000541225, 1.5455376000609249, 1.793795800069347, 2.0096653000218794, 2.6258204000769183]",,,,6,001,G,2023_Feb_16_1143,student_TT_local,2021.1.4,48.02345081116486,
,None,None,None,None,None,None,None,None,None,None,portal,murmur,19.5,20.5,video&audio/neural_touch_edited.mp4,video&audio/Sentence6_touch_edited.mp4,neural,clergy,None,,,,,,,,,,,,,,,,,,,,,,,,,,,,,,,,,,,,,,,,,,,,,,,,,,,,,,,,,,,0,1,1,17,,,,,,,,,,,,,,,,None,,,,,,,,,,,,,,,,,,,,,,,,,None, clergy,"['c', 'l', 'e', 'r', 'g', 'y', 'return']","[0.39696629997342825, 0.6929599998984486, 0.8616797999711707, 1.212841899949126, 1.4929341999813914, 1.7167212999192998, 2.27719569997862]",,,,6,001,G,2023_Feb_16_1143,student_TT_local,2021.1.4,48.02345081116486,
,None,None,None,None,None,None,None,None,None,None,gullet,manure,19.5,20.5,video&audio/tariff_touch_edited.mp4,video&audio/Sentence5_touch_edited.mp4,tariff,parish,None,,,,,,,,,,,,,,,,,,,,,,,,,,,,,,,,,,,,,,,,,,,,,,,,,,,,,,,,,,,0,2,2,28,,,,,,,,,,,,,,,,None,,,,,,,,,,,,,,,,,,,,,,,,,None, parish,"['p', 'a', 'r', 'i', 's', 'h', 'return']","[0.6805790000362322, 0.7772803000407293, 0.9525193000445142, 1.1446842000586912, 1.2485523000359535, 1.360761500080116, 1.6725934999994934]",,,,6,001,G,2023_Feb_16_1143,student_TT_local,2021.1.4,48.02345081116486,
,None,None,None,None,None,None,None,None,None,None,mystic,infirm,6.5,7.5,video&audio/cervix_TT_3X.mp4,video&audio/sentence4_TT_3X.mp4,cervix,oblige,None,,,,,,,,,,,,,,,,,,,,,,,,,,,,,,,,,,,,,,,,,,,,,,,,,,,,,,,,,,,0,3,3,3,,,,,,,,,,,,,,,,None,,,,,,,,,,,,,,,,,,,,,,,,,None, oblige,"['o', 'b', 'l', 'i', 'u', 'g', 'e', 'return']","[0.6109867000486702, 0.8910599000519142, 1.0828017999883741, 1.4033869999693707, 1.4109504000516608, 2.1549400000367314, 2.22700369998347, 2.7711913000093773]",,,,6,001,G,2023_Feb_16_1143,student_TT_local,2021.1.4,48.02345081116486,
,None,None,None,None,None,None,None,None,None,None,divert,upkeep,19.5,20.5,video&audio/solemn_touch_edited.mp4,video&audio/Sentence2_touch_edited.mp4,solemn,meddle,None,,,,,,,,,,,,,,,,,,,,,,,,,,,,,,,,,,,,,,,,,,,,,,,,,,,,,,,,,,,0,4,4,25,,,,,,,,,,,,,,,,None,,,,,,,,,,,,,,,,,,,,,,,,,None, meddle,"['m', 'e', 'd', 'd', 'l', 'e', 'return']","[0.47222450003027916, 0.6081640999764204, 0.8082159999758005, 0.9602018999867141, 1.0806802000151947, 1.2004593999590725, 1.3843152000335976]",,,,6,001,G,2023_Feb_16_1143,student_TT_local,2021.1.4,48.02345081116486,
,None,None,None,None,None,None,None,None,None,None,entail,novice,6.5,7.5,video&audio/confer_TT_3X.mp4,video&audio/sentence5_TT_3X.mp4,confer,primal,None,,,,,,,,,,,,,,,,,,,,,,,,,,,,,,,,,,,,,,,,,,,,,,,,,,,,,,,,,,,0,5,5,4,,,,,,,,,,,,,,,,None,,,,,,,,,,,,,,,,,,,,,,,,,None, primal,"['p', 'r', 'i', 'n', 'backspace', 'm', 'a', 'l', 'return']","[0.41424680000636727, 0.5579130999976769, 0.7659062999300659, 1.005896499962546, 1.5257745999842882, 1.8538659999612719, 1.957885199924931, 2.0859024999663234, 2.3418445999268442]",,,,6,001,G,2023_Feb_16_1143,student_TT_local,2021.1.4,48.02345081116486,
,None,None,None,None,None,None,None,None,None,None,uphold,pursue,19.5,20.5,video&audio/obsess_touch_edited.mp4,video&audio/Sentence1_touch_edited.mp4,obsess,output,None,,,,,,,,,,,,,,,,,,,,,,,,,,,,,,,,,,,,,,,,,,,,,,,,,,,,,,,,,,,0,6,6,18,,,,,,,,,,,,,,,,None,,,,,,,,,,,,,,,,,,,,,,,,,None, output,"['o', 'u', 't', 'p', 'u', 't', 'return']","[0.6244983999058604, 0.8160828999243677, 1.088153599994257, 1.4721532999537885, 1.8962914999574423, 2.0161360999336466, 2.288353299954906]",,,,6,001,G,2023_Feb_16_1143,student_TT_local,2021.1.4,48.02345081116486,
,None,None,None,None,None,None,None,None,None,None,apathy,revolt,6.5,7.5,video&audio/cortex_TT_3X.mp4,video&audio/sentence6_TT_3X.mp4,cortex,joiner,None,,,,,,,,,,,,,,,,,,,,,,,,,,,,,,,,,,,,,,,,,,,,,,,,,,,,,,,,,,,0,7,7,5,,,,,,,,,,,,,,,,None,,,,,,,,,,,,,,,,,,,,,,,,,None, joiner,"['j', 'o', 'i', 'n', 'e', 'r', 'return']","[0.748238299973309, 0.8358501000329852, 1.0208390000043437, 1.2439083000645041, 1.4197520000161603, 1.492183499969542, 1.6599445999599993]",,,,6,001,G,2023_Feb_16_1143,student_TT_local,2021.1.4,48.02345081116486,
,None,None,None,None,None,None,None,None,None,None,linear,impose,19.5,20.5,video&audio/pulpit_touch_edited.mp4,video&audio/Sentence6_touch_edited.mp4,pulpit,girdle,None,,,,,,,,,,,,,,,,,,,,,,,,,,,,,,,,,,,,,,,,,,,,,,,,,,,,,,,,,,,0,8,8,23,,,,,,,,,,,,,,,,None,,,,,,,,,,,,,,,,,,,,,,,,,None, girdle,"['i', 'r', 'd', 'l', 'e', 'return']","[0.6018333999672905, 0.9295429999474436, 1.3298609999474138, 1.44967739994172, 1.5538645000196993, 1.7376700999448076]",,,,6,001,G,2023_Feb_16_1143,student_TT_local,2021.1.4,48.02345081116486,
,None,None,None,None,None,None,None,None,None,None,herbal,deduct,6.5,7.5,video&audio/kipper_TT_3X.mp4,video&audio/sentence3_TT_3X.mp4,kipper,hearth,None,,,,,,,,,,,,,,,,,,,,,,,,,,,,,,,,,,,,,,,,,,,,,,,,,,,,,,,,,,,0,9,9,14,,,,,,,,,,,,,,,,None,,,,,,,,,,,,,,,,,,,,,,,,,None, hearth,"['h', 'e', 'a', 'r', 't', 'h', 'return']","[0.35781249997671694, 0.3983592999866232, 0.48613340000156313, 0.7339468999998644, 0.9266218999400735, 1.0301664000144228, 1.1900856000138447]",,,,6,001,G,2023_Feb_16_1143,student_TT_local,2021.1.4,48.02345081116486,
,None,None,None,None,None,None,None,None,None,None,defame,quarry,6.5,7.5,video&audio/frugal_TT_3X.mp4,video&audio/sentence6_TT_3X.mp4,frugal,patent,None,,,,,,,,,,,,,,,,,,,,,,,,,,,,,,,,,,,,,,,,,,,,,,,,,,,,,,,,,,,0,10,10,11,,,,,,,,,,,,,,,,None,,,,,,,,,,,,,,,,,,,,,,,,,None, patent,"['p', 'a', 't', 'e', 'n', 't', 'return']","[0.5947213000617921, 0.7306248999666423, 0.8749042999697849, 0.970683200052008, 1.0906314000021666, 1.2031318000517786, 1.3708770000375807]",,,,6,001,G,2023_Feb_16_1143,student_TT_local,2021.1.4,48.02345081116486,
,None,None,None,None,None,None,None,None,None,None,galley,strife,6.5,7.5,video&audio/debtor_TT_3X.mp4,video&audio/sentence2_TT_3X.mp4,debtor,delude,None,,,,,,,,,,,,,,,,,,,,,,,,,,,,,,,,,,,,,,,,,,,,,,,,,,,,,,,,,,,0,11,11,7,,,,,,,,,,,,,,,,None,,,,,,,,,,,,,,,,,,,,,,,,,None, delude,"['d', 'e', 'l', 'u', 'd', 'e', 'return']","[0.45949699997436255, 0.5791677999077365, 0.7871567999245599, 1.0031063999049366, 1.1712551999371499, 1.227690999978222, 1.3790824000025168]",,,,6,001,G,2023_Feb_16_1143,student_TT_local,2021.1.4,48.02345081116486,
,None,None,None,None,None,None,None,None,None,None,nettle,convoy,19.5,20.5,video&audio/matrix_touch_edited.mp4,video&audio/Sentence5_touch_edited.mp4,matrix,jailer,None,,,,,,,,,,,,,,,,,,,,,,,,,,,,,,,,,,,,,,,,,,,,,,,,,,,,,,,,,,,0,12,12,16,,,,,,,,,,,,,,,,None,,,,,,,,,,,,,,,,,,,,,,,,,None, jailer,"['j', 'a', 'i', 'l', 'e', 'r', 'return']","[0.4250942000653595, 0.5532903000712395, 0.6810183000052348, 0.8891967000672594, 1.0011172000085935, 1.1052347000222653, 1.44915880006738]",,,,6,001,G,2023_Feb_16_1143,student_TT_local,2021.1.4,48.02345081116486,
,None,None,None,None,None,None,None,None,None,None,shrill,brazen,19.5,20.5,video&audio/picket_touch_edited.mp4,video&audio/Sentence3_touch_edited.mp4,picket,caviar,None,,,,,,,,,,,,,,,,,,,,,,,,,,,,,,,,,,,,,,,,,,,,,,,,,,,,,,,,,,,0,13,13,20,,,,,,,,,,,,,,,,None,,,,,,,,,,,,,,,,,,,,,,,,,None, caviar,"['c', 'a', 'v', 'c', 'i', 'a', 'r', 'return']","[0.5024229999398813, 0.5824496999848634, 0.822668100008741, 0.8308236999437213, 1.4625398999778554, 1.56648070004303, 2.2867439000401646, 2.454570099944249]",,,,6,001,G,2023_Feb_16_1143,student_TT_local,2021.1.4,48.02345081116486,
,None,None,None,None,None,None,None,None,None,None,export,savant,19.5,20.5,video&audio/parcel_touch_edited.mp4,video&audio/Sentence2_touch_edited.mp4,parcel,cobble,None,,,,,,,,,,,,,,,,,,,,,,,,,,,,,,,,,,,,,,,,,,,,,,,,,,,,,,,,,,,0,14,14,19,,,,,,,,,,,,,,,,None,,,,,,,,,,,,,,,,,,,,,,,,,None, cobble,"['c', 'o', 'b', 'b', 'l', 'e', 'return']","[0.9229817999294028, 1.2349696999881417, 1.4192189999157563, 1.5554288999410346, 1.690875199972652, 1.8352770999772474, 1.9711207000073045]",,,,6,001,G,2023_Feb_16_1143,student_TT_local,2021.1.4,48.02345081116486,
,None,None,None,None,None,None,None,None,None,None,mussel,satire,19.5,20.5,video&audio/piston_touch_edited.mp4,video&audio/Sentence4_touch_edited.mp4,piston,induce,None,,,,,,,,,,,,,,,,,,,,,,,,,,,,,,,,,,,,,,,,,,,,,,,,,,,,,,,,,,,0,15,15,21,,,,,,,,,,,,,,,,None,,,,,,,,,,,,,,,,,,,,,,,,,None, induce,"['i', 'n', 'd', 'u', 'c', 'e', 'return']","[0.4834844000870362, 0.6755309000145644, 0.9956455000210553, 1.3956547999987379, 1.4916559000266716, 1.6516129000810906, 1.9315620000706986]",,,,6,001,G,2023_Feb_16_1143,student_TT_local,2021.1.4,48.02345081116486,
,None,None,None,None,None,None,None,None,None,None,shroud,sherry,6.5,7.5,video&audio/falter_TT_3X.mp4,video&audio/sentence4_TT_3X.mp4,falter,hamlet,None,,,,,,,,,,,,,,,,,,,,,,,,,,,,,,,,,,,,,,,,,,,,,,,,,,,,,,,,,,,0,16,16,9,,,,,,,,,,,,,,,,None,,,,,,,,,,,,,,,,,,,,,,,,,['bracketright'], hamlet,"['h', 'a', 'm', 'l', 'e', 't', 'return']","[0.2903308999957517, 0.4663963000057265, 0.6503811000147834, 0.8423220999538898, 0.9865866999607533, 1.106507399934344, 1.2584777999436483]",[0.09688179998192936],,,6,001,G,2023_Feb_16_1143,student_TT_local,2021.1.4,48.02345081116486,
,None,None,None,None,None,None,None,None,None,None,ordain,potent,6.5,7.5,video&audio/jackal_TT_3X.mp4,video&audio/sentence2_TT_3X.mp4,jackal,septic,None,,,,,,,,,,,,,,,,,,,,,,,,,,,,,,,,,,,,,,,,,,,,,,,,,,,,,,,,,,,0,17,17,13,,,,,,,,,,,,,,,,None,,,,,,,,,,,,,,,,,,,,,,,,,None, septic,"['s', 'e', 'p', 't', 'i', 'c', 'return']","[0.354734200052917, 0.41852960002142936, 0.5712644000304863, 0.7705858000554144, 0.9546591000398621, 1.1305755000794306, 1.330575600033626]",,,,6,001,G,2023_Feb_16_1143,student_TT_local,2021.1.4,48.02345081116486,
,None,None,None,None,None,None,None,None,None,None,fusion,critic,6.5,7.5,video&audio/forage_TT_3X.mp4,video&audio/sentence5_TT_3X.mp4,forage,zephyr,None,,,,,,,,,,,,,,,,,,,,,,,,,,,,,,,,,,,,,,,,,,,,,,,,,,,,,,,,,,,0,18,18,10,,,,,,,,,,,,,,,,None,,,,,,,,,,,,,,,,,,,,,,,,,None, zephyr,"['z', 'e', 'p', 'h', 'y', 'r', 'return']","[0.5020941999973729, 0.7738236000295728, 1.0703356000594795, 1.2058276999741793, 2.1179277000483125, 2.254083100007847, 2.533998499973677]",,,,6,001,G,2023_Feb_16_1143,student_TT_local,2021.1.4,48.02345081116486,
,"While you watch the video, imagine yourself typing the word on the screen, like how you did in the imagery practice. While you watch the video and imagine this, rest your hands on your keyboard but DO NOT type until AFTER you see the typing prompt.

Press 'enter/return' to go to the next page.","While watching the video, imagine yourself typing the word on the screen, like how you did in the imagery practice. While you watch the video and imagine this, rest your hands on your keyboard but DO NOT type until AFTER you see the typing prompt.

Press 'enter/return' to go to the next page.",video&audio/Example_AOMI_imagine.png,1.6,1,butter,6.5,7.5,video&audio/butter_TT_3X.mp4,video&audio/amount_TT_3X.mp4,eatery,plight,6.5,7.5,video&audio/belfry_TT_3X.mp4,video&audio/sentence2_TT_3X.mp4,belfry,metric,2 = AOMIgen,,,,,,,,,,,,,,,,,,,,,,,,,,,,,,,,,,,,,,,,,,,,,,,,,,,,,,,,,,,0,19,19,1,,,,,,,,,,,,,,,,None,,,,,,,,,,,,,,,,,,,,,,,,,None, metric,"['m', 'e', 't', 'r', 'i', 'c', 'return']","[0.5381955000339076, 0.6099834000924602, 0.7461813000263646, 0.8822194000240415, 1.0181095000589266, 1.2899943999946117, 1.5140369000146165]",,,,6,001,G,2023_Feb_16_1143,student_TT_local,2021.1.4,48.02345081116486,
,None,None,None,None,None,None,None,None,None,None,ration,parole,6.5,7.5,video&audio/devise_TT_3X.mp4,video&audio/sentence3_TT_3X.mp4,devise,befall,None,,,,,,,,,,,,,,,,,,,,,,,,,,,,,,,,,,,,,,,,,,,,,,,,,,,,,,,,,,,0,20,20,8,,,,,,,,,,,,,,,,None,,,,,,,,,,,,,,,,,,,,,,,,,None, befall,"['b', 'e', 'f', 'a', 'l', 'l', 'return']","[0.3880856999894604, 0.49996779998764396, 0.6440982999047264, 0.7880629999563098, 1.1480786999454722, 1.356086099985987, 1.5481478999136016]",,,,6,001,G,2023_Feb_16_1143,student_TT_local,2021.1.4,48.02345081116486,
,None,None,None,None,None,None,None,None,None,None,tamper,sonnet,6.5,7.5,video&audio/hippie_TT_3X.mp4,video&audio/sentence1_TT_3X.mp4,hippie,innate,None,,,,,,,,,,,,,,,,,,,,,,,,,,,,,,,,,,,,,,,,,,,,,,,,,,,,,,,,,,,0,21,21,12,,,,,,,,,,,,,,,,None,,,,,,,,,,,,,,,,,,,,,,,,,None, innate,"['i', 'n', 'n', 'a', 't', 'e', 'bracketright', 'pound', 'backspace', 'backspace', 'return']","[0.35272800002712756, 0.5609264000086114, 0.6964133000001311, 0.7689023000421003, 0.904423400061205, 0.9925023000687361, 1.264466300024651, 1.2809044000459835, 1.9285964000737295, 2.048890700098127, 2.208663000026718]",,,,6,001,G,2023_Feb_16_1143,student_TT_local,2021.1.4,48.02345081116486,
,"Remember to type as QUICKLY and ACCURATELY as possible after the 'get ready' prompt.

Ask the experimenter any questions now. Please put on the headphones.

You will get one practice trial. Press 'enter/return' when you are ready to start the practice.","Remember to type as QUICKLY and ACCURATELY as you can after the 'get ready' prompt.

Ask the experimenter any questions now. Please put on the headphones.

You will get one practice trial. Press 'enter/return' when you are ready to start the practice.",video&audio/Example_AOMI_total.png,1.8,0.7,None,None,None,None,None,ghetto,jargon,6.5,7.5,video&audio/botany_TT_3X.mp4,video&audio/sentence3_TT_3X.mp4,botany,oppose,None,,,,,,,,,,,,,,,,,,,,,,,,,,,,,,,,,,,,,,,,,,,,,,,,,,,,,,,,,,,0,22,22,2,,,,,,,,,,,,,,,,None,,,,,,,,,,,,,,,,,,,,,,,,,None, oppose,"['o', 'p', 'p', 'o', 's', 'e', 'return']","[0.7284897000063211, 0.9285441000247374, 1.5766197999473661, 1.7845852000173181, 1.9049124999437481, 1.9688810999505222, 2.4405016999226063]",,,,6,001,G,2023_Feb_16_1143,student_TT_local,2021.1.4,48.02345081116486,
,None,None,None,None,None,None,None,None,None,None,ethnic,goblet,19.5,20.5,video&audio/subtle_touch_edited.mp4,video&audio/Sentence4_touch_edited.mp4,subtle,trench,None,,,,,,,,,,,,,,,,,,,,,,,,,,,,,,,,,,,,,,,,,,,,,,,,,,,,,,,,,,,0,23,23,27,,,,,,,,,,,,,,,,None,,,,,,,,,,,,,,,,,,,,,,,,,None, trench,"['t', 'r', 'e', 'n', 'c', 'h', 'return']","[0.5620020000496879, 0.6502980999648571, 0.7540336999809369, 1.0100240999599919, 1.2181572000263259, 1.3222010999452323, 1.658457100042142]",,,,6,001,G,2023_Feb_16_1143,student_TT_local,2021.1.4,48.02345081116486,
,"This is Section 2.

In this section, your task will be the same as before - that is, to type the word you see on the screen after the typing prompt. However, rather than just seeing the word before typing, you will also see a video of someone typing the same word you will need to type at various speeds. 

Press 'enter/return' to go to the next page.","This is Section 4. 

In this section, your task will be the same as before - that is, to type the word you see on the screen after the typing prompt. You will see a video again, like in Section 2, only this time, the video will show someone typing different words to what you must type at various speeds. 

Press 'enter/return' to go to the next page.",video&audio/Example_AOMI_layout.png,1.6,0.6,afford,19.5,20.5,video&audio/afford_touch_edited.mp4,video&audio/amount_touch_edited.mp4,breach,vanity,6.5,7.5,video&audio/ascend_TT_3X.mp4,video&audio/sentence1_TT_3X.mp4,ascend,hinder,1 = AOMIspec,,,,,,,,,,,,,,,,,,,,,,,,,,,,,,,,,,,,,,,,,,,,,,,,,,,,,,,,,,,0,24,24,0,,,,,,,,,,,,,,,,None,,,,,,,,,,,,,,,,,,,,,,,,,None, hinder,"['h', 'i', 'n', 'd', 'e', 'r', 'return']","[0.5438811000203714, 0.7035819999873638, 0.8716110000386834, 0.9834626000374556, 1.1038398999953642, 1.2637445000000298, 1.4315576000371948]",,,,6,001,G,2023_Feb_16_1143,student_TT_local,2021.1.4,48.02345081116486,
,None,None,None,None,None,None,None,None,None,None,origin,coerce,19.5,20.5,video&audio/malady_touch_edited.mp4,video&audio/Sentence4_touch_edited.mp4,malady,tandem,None,,,,,,,,,,,,,,,,,,,,,,,,,,,,,,,,,,,,,,,,,,,,,,,,,,,,,,,,,,,0,25,25,15,,,,,,,,,,,,,,,,None,,,,,,,,,,,,,,,,,,,,,,,,,None, tandem,"['t', 'a', 'n', 'd', 'e', 'm', 'return']","[0.39460340002551675, 0.46684300003107637, 0.6503757999744266, 0.8264295000117272, 0.9624266000464559, 1.242424500058405, 1.4824377000331879]",,,,6,001,G,2023_Feb_16_1143,student_TT_local,2021.1.4,48.02345081116486,
,None,None,None,None,None,None,None,None,None,None,warble,fodder,19.5,20.5,video&audio/ritual_touch_edited.mp4,video&audio/Sentence1_touch_edited.mp4,ritual,mangle,None,,,,,,,,,,,,,,,,,,,,,,,,,,,,,,,,,,,,,,,,,,,,,,,,,,,,,,,,,,,0,26,26,24,,,,,,,,,,,,,,,,None,,,,,,,,,,,,,,,,,,,,,,,,,None, mangle,"['m', 'a', 'n', 'g', 'l', 'e', 'return']","[0.6896084999898449, 0.7773562999209389, 0.9136008999776095, 1.0653310000197962, 1.2414403000148013, 1.3853492999915034, 1.6093485999153927]",,,,6,001,G,2023_Feb_16_1143,student_TT_local,2021.1.4,48.02345081116486,
,None,None,None,None,None,None,None,None,None,None,allure,binder,19.5,20.5,video&audio/virile_touch_edited.mp4,video&audio/Sentence6_touch_edited.mp4,virile,campus,None,,,,,,,,,,,,,,,,,,,,,,,,,,,,,,,,,,,,,,,,,,,,,,,,,,,,,,,,,,,0,27,27,29,,,,,,,,,,,,,,,,None,,,,,,,,,,,,,,,,,,,,,,,,,None, campus,"['c', 'a', 'm', 'p', 'u', 's', 'return']","[0.33430670003872365, 0.453927299939096, 0.6619083000114188, 0.8944394999416545, 1.1659410999855027, 1.3738922999473289, 1.5658111999509856]",,,,6,001,G,2023_Feb_16_1143,student_TT_local,2021.1.4,48.02345081116486,
,None,None,None,None,None,None,None,None,None,None,mucous,musket,19.5,20.5,video&audio/plasma_touch_edited.mp4,video&audio/Sentence5_touch_edited.mp4,plasma,fungal,None,,,,,,,,,,,,,,,,,,,,,,,,,,,,,,,,,,,,,,,,,,,,,,,,,,,,,,,,,,,0,28,28,22,,,,,,,,,,,,,,,,None,,,,,,,,,,,,,,,,,,,,,,,,,None, fungal,"['f', 'u', 'n', 'g', 'a', 'l', 'return']","[0.612178499926813, 0.700288699939847, 0.8762004999443889, 0.9801267000148073, 1.0523154999827966, 1.3640731000341475, 1.6201473999535665]",,,,6,001,G,2023_Feb_16_1143,student_TT_local,2021.1.4,48.02345081116486,
,None,None,None,None,None,None,None,None,None,None,revoke,mirage,6.5,7.5,video&audio/covert_TT_3X.mp4,video&audio/sentence1_TT_3X.mp4,covert,shrewd,None,,,,,,,,,,,,,,,,,,,,,,,,,,,,,,,,,,,,,,,,,,,,,,,,,,,,,,,,,,,0,29,29,6,,,,,,,,,,,,,,,,None,,,,,,,,,,,,,,,,,,,,,,,,,None, shrewd,"['s', 'h', 'r', 'e', 'w', 'd', 'return']","[0.569496100069955, 0.7369026000378653, 0.9290592001052573, 0.9927971001015976, 1.5048307001125067, 1.768899800023064, 1.9370135000208393]",,,,6,001,G,2023_Feb_16_1143,student_TT_local,2021.1.4,48.02345081116486,
,,,,,,,,,,,,,,,,,,,,typingRatingScale.png,"How would you rate your typing performance in the previous section?

Press a number on your keyboard according to the rating scale below to give your answer. Your first answer will be accepted.",,,,,,,,,,,,,,,,,,,,,,,,,,,,,,,,,,,,,,,,,,,,,,,,,,,,,,,,,,,,,0,0,0,0,,,,,,,,,,,,,,,,,,,,,,,,,,,,,,,,,,,,,,,,,,['4'],[3.873082800069824],6,001,G,2023_Feb_16_1143,student_TT_local,2021.1.4,48.02345081116486,
,,,,,,,,,,,,,,,,,,,,visualImageryScale.png,"While imagining yourself typing, how clear was your visual image?

Press a number on your keyboard according to the rating scale below to give your answer. Your first answer will be accepted.",,,,,,,,,,,,,,,,,,,,,,,,,,,,,,,,,,,,,,,,,,,,,,,,,,,,,,,,,,,,,0,1,1,1,,,,,,,,,,,,,,,,,,,,,,,,,,,,,,,,,,,,,,,,,,['4'],[3.844771399977617],6,001,G,2023_Feb_16_1143,student_TT_local,2021.1.4,48.02345081116486,
,,,,,,,,,,,,,,,,,,,,kinestheticImageryScale.png,"While imagining yourself typing, how intense were the sensations associated with the imagined movement?

Press a number on your keyboard according to the rating scale below to give your answer. Your first answer will be accepted.",,,,,,,,,,,,,,,,,,,,,,,,,,,,,,,,,,,,,,,,,,,,,,,,,,,,,,,,,,,,,0,2,2,2,,,,,,,,,,,,,,,,,,,,,,,,,,,,,,,,,,,,,,,,,,['4'],[3.4140650000190362],6,001,G,2023_Feb_16_1143,student_TT_local,2021.1.4,48.02345081116486,
