pracWords,instr_1,instr_2,AOMI_Ima,AOMI_w,AOMI_h,practiceWords,prac_time,prac_bkgd_time,pracVid_1,pracVid_2,baseline_words,control_words,cont_time,cont_bgkd_time,first_vids,second_vids,AOMIfirst_words,AOMIsecond_words,Order,ratingScale,rateInstr,instructLoop.thisRepN,instructLoop.thisTrialN,instructLoop.thisN,instructLoop.thisIndex,practice_control.thisRepN,practice_control.thisTrialN,practice_control.thisN,practice_control.thisIndex,trials_1.thisRepN,trials_1.thisTrialN,trials_1.thisN,trials_1.thisIndex,baseRateLoop.thisRepN,baseRateLoop.thisTrialN,baseRateLoop.thisN,baseRateLoop.thisIndex,AOMIinstrLoop1.thisRepN,AOMIinstrLoop1.thisTrialN,AOMIinstrLoop1.thisN,AOMIinstrLoop1.thisIndex,AOMIpracLoop.thisRepN,AOMIpracLoop.thisTrialN,AOMIpracLoop.thisN,AOMIpracLoop.thisIndex,trials_2.thisRepN,trials_2.thisTrialN,trials_2.thisN,trials_2.thisIndex,AOMI1rateLoop.thisRepN,AOMI1rateLoop.thisTrialN,AOMI1rateLoop.thisN,AOMI1rateLoop.thisIndex,contInstrLoop.thisRepN,contInstrLoop.thisTrialN,contInstrLoop.thisN,contInstrLoop.thisIndex,contPracLoop.thisRepN,contPracLoop.thisTrialN,contPracLoop.thisN,contPracLoop.thisIndex,trials_3.thisRepN,trials_3.thisTrialN,trials_3.thisN,trials_3.thisIndex,contRateLoop.thisRepN,contRateLoop.thisTrialN,contRateLoop.thisN,contRateLoop.thisIndex,AOMIinstrLoop2.thisRepN,AOMIinstrLoop2.thisTrialN,AOMIinstrLoop2.thisN,AOMIinstrLoop2.thisIndex,AOMIpracLoop2.thisRepN,AOMIpracLoop2.thisTrialN,AOMIpracLoop2.thisN,AOMIpracLoop2.thisIndex,trials_4.thisRepN,trials_4.thisTrialN,trials_4.thisN,trials_4.thisIndex,AOMI2rateLoop.thisRepN,AOMI2rateLoop.thisTrialN,AOMI2rateLoop.thisN,AOMI2rateLoop.thisIndex,pracBkgdKeys.keys,pracKeys.keys,pracKeys.rt,baseBkgdKeys.keys,base_typedWord,baseKeys.keys,baseKeys.rt,baseRateTypeKey.keys,baseRateTypeKey.rt,AOMI1_BkgdKeys.keys,AOMI_promptBkgdKeys.keys,AOMI1pracKeys.keys,AOMI1pracKeys.rt,AOMI1bkdgKeys.keys,AOMI1_typedWord,AOMI1keys.keys,AOMI1keys.rt,AOMI1rateTypeKey.keys,AOMI1rateTypeKey.rt,polygon_prac.started,polygon_prac.stopped,contBkgdKeys_prac.keys,contPrac_typedWord,contKeys_prac.keys,contKeys_prac.rt,polygon.started,polygon.stopped,contBkgdKeys.keys,cont_typedWord,contKeys.keys,contKeys.rt,contTypeKey.keys,contTypeKey.rt,bkgdkeys_prac2.keys,AOMI_promptBkgdKeys.rt,bkgdKeys4.keys,AOMI2_typedWord,keyboardCom4.keys,keyboardCom4.rt,AOMI2typeKey.keys,AOMI2typeKey.rt,participant,session,group,date,expName,psychopyVersion,frameRate,
height,,,,,,,,,,,,,,,,,,,,,,,,,,0,0,0,0,,,,,,,,,,,,,,,,,,,,,,,,,,,,,,,,,,,,,,,,,,,,,,,,,,,,,,,,,None,"['h', 'e', 'i', 'g', 'h', 't', 'return']","[0.6728802999987238, 0.8569021999992401, 1.0249437000002217, 1.281207899999572, 1.4568780999998125, 1.6168409999991127, 2.849372200000289]",,,,,,,,,,,,,,,,,,,,,,,,,,,,,,,,,,,,,,,7,001,F,2023_Feb_09_1320,student_TT_local,2021.1.4,59.829295054717065,
update,,,,,,,,,,,,,,,,,,,,,,,,,,0,1,1,2,,,,,,,,,,,,,,,,,,,,,,,,,,,,,,,,,,,,,,,,,,,,,,,,,,,,,,,,,None,"['u', 'p', 'd', 'a', 't', 'e', 'return']","[0.6719943000007333, 0.7920668000006117, 0.9677602000010666, 1.0961301999996067, 1.2639084000002185, 1.3921470000004774, 1.7924603000010393]",,,,,,,,,,,,,,,,,,,,,,,,,,,,,,,,,,,,,,,7,001,F,2023_Feb_09_1320,student_TT_local,2021.1.4,59.829295054717065,
replay,,,,,,,,,,,,,,,,,,,,,,,,,,0,2,2,1,,,,,,,,,,,,,,,,,,,,,,,,,,,,,,,,,,,,,,,,,,,,,,,,,,,,,,,,,None,"['r', 'e', 'p', 'l', 'a', 'y', 'return']","[0.5123504999992292, 0.6723091000003478, 0.8563474000002316, 1.016165600000022, 1.1843114999992395, 1.4323745000001509, 1.9607832000001508]",,,,,,,,,,,,,,,,,,,,,,,,,,,,,,,,,,,,,,,7,001,F,2023_Feb_09_1320,student_TT_local,2021.1.4,59.829295054717065,
,None,None,None,None,None,None,None,None,None,None,infirm,pulpit,6.5,7.5,video&audio/sentence4_TT_3X.mp4,video&audio/oblige_TT_3X.mp4,mystic,oblige,None,,,,,,,,,,,0,0,0,3,,,,,,,,,,,,,,,,,,,,,,,,,,,,,,,,,,,,,,,,,,,,,,,,,,,,,,,,None, infirm,"['i', 'n', 'f', 'i', 'r', 'n', 'backspace', 'm', 'return']","[0.5526532999992924, 0.7207486999996036, 0.8971940999999788, 1.0651471000001038, 1.233094399998663, 1.3852553999986412, 2.3772460000000137, 2.8728351999998267, 3.4727564999993774]",,,,,,,,,,,,,,,,,,,,,,,,,,,,,,,,,,,7,001,F,2023_Feb_09_1320,student_TT_local,2021.1.4,59.829295054717065,
,"This is Section 2.

In this section, your task will be the same as before - that is, to type the word you see on the screen AFTER the typing prompt. However, rather than just seeing the word before typing, you will also see a video of someone typing different words to what you will need to type at different speeds. 

Press 'enter/return' to go to the next page.","This is Section 4. 

In this section, your task will be the same as before - that is, to type the word you see on the screen after the typing prompt. You will see a video again, like in Section 2, only this time, the video will show someone the same word that you must type at different speeds. 

Press 'enter/return' to go to the next page.",video&audio/Example_AOMI_layout.png,1.6,0.6,afford,19.5,20.5,video&audio/amount_touch_edited.mp4,video&audio/afford_touch_edited.mp4,vanity,matrix,6.5,7.5,video&audio/sentence1_TT_3X.mp4,video&audio/hinder_TT_3X.mp4,breach,hinder,1 = AOMIgen,,,,,,,,,,,0,1,1,0,,,,,,,,,,,,,,,,,,,,,,,,,,,,,,,,,,,,,,,,,,,,,,,,,,,,,,,,None, vanity,"['v', 'a', 'n', 'i', 't', 'y', 'return']","[0.6303220999998302, 0.7983109999986482, 1.046192300000257, 1.1901921999997285, 1.3824010999996972, 1.510969599999953, 1.9660337999994226]",,,,,,,,,,,,,,,,,,,,,,,,,,,,,,,,,,,7,001,F,2023_Feb_09_1320,student_TT_local,2021.1.4,59.829295054717065,
,None,None,None,None,None,None,None,None,None,None,satire,cortex,19.5,20.5,video&audio/Sentence4_touch_edited.mp4,video&audio/induce_touch_edited.mp4,mussel,induce,None,,,,,,,,,,,0,2,2,21,,,,,,,,,,,,,,,,,,,,,,,,,,,,,,,,,,,,,,,,,,,,,,,,,,,,,,,,None, satire,"['s', 'a', 't', 'i', 'r', 'e', 'return']","[0.5199140999993688, 0.7040890000007494, 0.9198947999993834, 1.1041339999992488, 1.3679556000006414, 1.488067799999044, 1.6962217000000237]",,,,,,,,,,,,,,,,,,,,,,,,,,,,,,,,,,,7,001,F,2023_Feb_09_1320,student_TT_local,2021.1.4,59.829295054717065,
,"While you watch the video, imagine yourself typing the word on the screen, like how you did in the imagery practice. While you watch the video and imagine this, rest your hands on your keyboard but DO NOT type until AFTER you see the typing prompt.

Press 'enter/return' to go to the next page.","While watching the video, imagine yourself typing the word on the screen, like how you did in the imagery practice. While you watch the video and imagine this, rest your hands on your keyboard but DO NOT type until AFTER you see the typing prompt.

Press 'enter/return' to go to the next page.",video&audio/Example_AOMI_imagine.png,1.6,1,butter,6.5,7.5,video&audio/amount_TT_3X.mp4,video&audio/butter_TT_3X.mp4,plight,ascend,6.5,7.5,video&audio/sentence2_TT_3X.mp4,video&audio/metric_TT_3X.mp4,eatery,metric,2 = AOMIspec,,,,,,,,,,,0,3,3,1,,,,,,,,,,,,,,,,,,,,,,,,,,,,,,,,,,,,,,,,,,,,,,,,,,,,,,,,None, plight,"['p', 'l', 'i', 'g', 'h', 't', 'return']","[0.5576407999997173, 0.6621580000009999, 0.8782726000008552, 1.0781249000010575, 1.1894442000011622, 1.285479000000123, 1.5820363000002544]",,,,,,,,,,,,,,,,,,,,,,,,,,,,,,,,,,,7,001,F,2023_Feb_09_1320,student_TT_local,2021.1.4,59.829295054717065,
,None,None,None,None,None,None,None,None,None,None,musket,subtle,19.5,20.5,video&audio/Sentence5_touch_edited.mp4,video&audio/fungal_touch_edited.mp4,mucous,fungal,None,,,,,,,,,,,0,4,4,22,,,,,,,,,,,,,,,,,,,,,,,,,,,,,,,,,,,,,,,,,,,,,,,,,,,,,,,,None, musket,"['m', 'u', 's', 'k', 'e', 't', 'return']","[0.6397656999997707, 0.8719498999998905, 1.2397995999999694, 1.3518136000002414, 1.4799583000003622, 1.6237068000009458, 1.8801084000006085]",,,,,,,,,,,,,,,,,,,,,,,,,,,,,,,,,,,7,001,F,2023_Feb_09_1320,student_TT_local,2021.1.4,59.829295054717065,
,None,None,None,None,None,None,None,None,None,None,coerce,falter,19.5,20.5,video&audio/Sentence4_touch_edited.mp4,video&audio/tandem_touch_edited.mp4,origin,tandem,None,,,,,,,,,,,0,5,5,15,,,,,,,,,,,,,,,,,,,,,,,,,,,,,,,,,,,,,,,,,,,,,,,,,,,,,,,,None, coerce,"['c', 'o', 'e', 'r', 'c', 'e', 'return']","[0.6857582000011462, 0.8058860000001005, 0.9424550000003364, 1.1017404000012903, 1.3018312000003789, 1.4139611000009609, 1.7109138000014354]",,,,,,,,,,,,,,,,,,,,,,,,,,,,,,,,,,,7,001,F,2023_Feb_09_1320,student_TT_local,2021.1.4,59.829295054717065,
,None,None,None,None,None,None,None,None,None,None,convoy,plasma,19.5,20.5,video&audio/Sentence5_touch_edited.mp4,video&audio/jailer_touch_edited.mp4,nettle,jailer,None,,,,,,,,,,,0,6,6,16,,,,,,,,,,,,,,,,,,,,,,,,,,,,,,,,,,,,,,,,,,,,,,,,,,,,,,,,None, convoy,"['c', 'o', 'n', 'v', 'o', 'y', 'return']","[0.8518734999997832, 0.9556494999997085, 1.1555570999989868, 1.3881717000003846, 1.5156350999986898, 1.7235473999990063, 2.396433199999592]",,,,,,,,,,,,,,,,,,,,,,,,,,,,,,,,,,,7,001,F,2023_Feb_09_1320,student_TT_local,2021.1.4,59.829295054717065,
,"Remember to type as QUICKLY and ACCURATELY as possible after the 'get ready' prompt.

Ask the experimenter any questions now. Please put on the headphones.

You will get one practice trial. Press 'enter/return' when you are ready to start the practice.","Remember to type as QUICKLY and ACCURATELY as you can after the 'get ready' prompt.

Ask the experimenter any questions now. Please put on the headphones.

You will get one practice trial. Press 'enter/return' when you are ready to start the practice.",video&audio/Example_AOMI_total.png,1.8,0.7,None,None,None,None,None,jargon,frugal,6.5,7.5,video&audio/sentence3_TT_3X.mp4,video&audio/oppose_TT_3X.mp4,ghetto,oppose,None,,,,,,,,,,,0,7,7,2,,,,,,,,,,,,,,,,,,,,,,,,,,,,,,,,,,,,,,,,,,,,,,,,,,,,,,,,None, jargon,"['j', 'a', 'r', 'g', 'o', 'n', 'return']","[0.668731800000387, 0.8047367999988637, 0.9487212000003638, 1.2203883999991376, 1.356522899999618, 1.508754399999816, 1.9724311999998463]",,,,,,,,,,,,,,,,,,,,,,,,,,,,,,,,,,,7,001,F,2023_Feb_09_1320,student_TT_local,2021.1.4,59.829295054717065,
,None,None,None,None,None,None,None,None,None,None,legion,subdue,19.5,20.5,video&audio/Sentence3_touch_edited.mp4,video&audio/feudal_touch_edited.mp4,matron,feudal,None,,,,,,,,,,,0,8,8,26,,,,,,,,,,,,,,,,,,,,,,,,,,,,,,,,,,,,,,,,,,,,,,,,,,,,,,,,None, legion,"['l', 'e', 'g', 'i', 'o', 'n', 'return']","[0.6789943999992829, 0.814352899998994, 1.4144661999998789, 1.5345565999996325, 1.646631100000377, 1.8789753999990353, 2.2784836999999243]",,,,,,,,,,,,,,,,,,,,,,,,,,,,,,,,,,,7,001,F,2023_Feb_09_1320,student_TT_local,2021.1.4,59.829295054717065,
,None,None,None,None,None,None,None,None,None,None,parole,solemn,6.5,7.5,video&audio/sentence3_TT_3X.mp4,video&audio/befall_TT_3X.mp4,ration,befall,None,,,,,,,,,,,0,9,9,8,,,,,,,,,,,,,,,,,,,,,,,,,,,,,,,,,,,,,,,,,,,,,,,,,,,,,,,,None, parole,"['p', 'a', 'r', 'o', 'l', 'e', 'return']","[0.583448600000338, 0.7193922999995266, 1.2236923999989813, 1.3513614000003145, 1.5195155999990675, 1.6153694999993604, 1.831245699999272]",,,,,,,,,,,,,,,,,,,,,,,,,,,,,,,,,,,7,001,F,2023_Feb_09_1320,student_TT_local,2021.1.4,59.829295054717065,
,None,None,None,None,None,None,None,None,None,None,upkeep,kipper,19.5,20.5,video&audio/Sentence2_touch_edited.mp4,video&audio/meddle_touch_edited.mp4,divert,meddle,None,,,,,,,,,,,0,10,10,25,,,,,,,,,,,,,,,,,,,,,,,,,,,,,,,,,,,,,,,,,,,,,,,,,,,,,,,,None, upkeep,"['u', 'p', 'k', 'e', 'e', 'p', 'return']","[0.7084448999994493, 0.8363797000001796, 1.1885131999988516, 1.6366799999996147, 1.7886024999988877, 1.9723682999992889, 2.4203687999997783]",,,,,,,,,,,,,,,,,,,,,,,,,,,,,,,,,,,7,001,F,2023_Feb_09_1320,student_TT_local,2021.1.4,59.829295054717065,
,None,None,None,None,None,None,None,None,None,None,brazen,piston,19.5,20.5,video&audio/Sentence3_touch_edited.mp4,video&audio/caviar_touch_edited.mp4,shrill,caviar,None,,,,,,,,,,,0,11,11,20,,,,,,,,,,,,,,,,,,,,,,,,,,,,,,,,,,,,,,,,,,,,,,,,,,,,,,,,None, brazen,"['b', 'r', 'a', 'z', 'e', 'n', 'return']","[0.5408143000004202, 0.652604999999312, 0.8205734999992274, 1.172636400000556, 1.6128625000001193, 1.7325607999991917, 2.1566585000000487]",,,,,,,,,,,,,,,,,,,,,,,,,,,,,,,,,,,7,001,F,2023_Feb_09_1320,student_TT_local,2021.1.4,59.829295054717065,
,None,None,None,None,None,None,None,None,None,None,potent,neural,6.5,7.5,video&audio/sentence2_TT_3X.mp4,video&audio/septic_TT_3X.mp4,ordain,septic,None,,,,,,,,,,,0,12,12,13,,,,,,,,,,,,,,,,,,,,,,,,,,,,,,,,,,,,,,,,,,,,,,,,,,,,,,,,None, potent,"['p', 'o', 'e', 't', 'e', 'n', 't', 'backspace', 'backspace', 'backspace', 'backspace', 'backspace', 't', 'e', 'n', 't', 'return']","[0.46334660000138683, 0.6073596000005637, 0.7354142000003776, 0.9991506000005757, 1.1441618999997445, 1.287357900000643, 1.4717141000000993, 2.59920670000065, 2.7995872999999847, 2.935166900000695, 3.1191981000010855, 3.2633630000000267, 3.6312458000011247, 3.7512016000000585, 4.151162800000748, 4.519305499999973, 4.87130470000011]",,,,,,,,,,,,,,,,,,,,,,,,,,,,,,,,,,,7,001,F,2023_Feb_09_1320,student_TT_local,2021.1.4,59.829295054717065,
,None,None,None,None,None,None,None,None,None,None,strife,tariff,6.5,7.5,video&audio/sentence2_TT_3X.mp4,video&audio/delude_TT_3X.mp4,galley,delude,None,,,,,,,,,,,0,13,13,7,,,,,,,,,,,,,,,,,,,,,,,,,,,,,,,,,,,,,,,,,,,,,,,,,,,,,,,,None, strife,"['s', 't', 'r', 'i', 'f', 'e', 'return']","[0.5909484000003431, 0.7988136000003578, 0.9991563000003225, 1.1593401999998605, 1.351008699999511, 1.4388123999997333, 1.9027432999992016]",,,,,,,,,,,,,,,,,,,,,,,,,,,,,,,,,,,7,001,F,2023_Feb_09_1320,student_TT_local,2021.1.4,59.829295054717065,
,None,None,None,None,None,None,None,None,None,None,goblet,botany,19.5,20.5,video&audio/Sentence4_touch_edited.mp4,video&audio/trench_touch_edited.mp4,ethnic,trench,None,,,,,,,,,,,0,14,14,27,,,,,,,,,,,,,,,,,,,,,,,,,,,,,,,,,,,,,,,,,,,,,,,,,,,,,,,,None, goblet,"['g', 'o', 'b', 'l', 'e', 't', 'return']","[0.6679199000009248, 0.8285558999996283, 0.9719772000007652, 1.1078455000006215, 1.2202219999999215, 1.3878913999997167, 1.771860500000912]",,,,,,,,,,,,,,,,,,,,,,,,,,,,,,,,,,,7,001,F,2023_Feb_09_1320,student_TT_local,2021.1.4,59.829295054717065,
,None,None,None,None,None,None,None,None,None,None,pursue,debtor,19.5,20.5,video&audio/Sentence1_touch_edited.mp4,video&audio/output_touch_edited.mp4,uphold,output,None,,,,,,,,,,,0,15,15,18,,,,,,,,,,,,,,,,,,,,,,,,,,,,,,,,,,,,,,,,,,,,,,,,,,,,,,,,None, pursue,"['p', 'u', 'r', 's', 'u', 'e', 'return']","[0.46356760000162467, 0.7030512000001181, 0.9590919000002032, 1.3992201000000932, 2.0550973000008526, 2.1511526000012964, 2.6797065999999177]",,,,,,,,,,,,,,,,,,,,,,,,,,,,,,,,,,,7,001,F,2023_Feb_09_1320,student_TT_local,2021.1.4,59.829295054717065,
,None,None,None,None,None,None,None,None,None,None,sonnet,confer,6.5,7.5,video&audio/sentence1_TT_3X.mp4,video&audio/innate_TT_3X.mp4,tamper,innate,None,,,,,,,,,,,0,16,16,12,,,,,,,,,,,,,,,,,,,,,,,,,,,,,,,,,,,,,,,,,,,,,,,,,,,,,,,,None, sonnet,"['s', 'o', 'n', 'n', 'e', 't', 'return']","[0.6691800000007788, 0.7810526000012032, 1.0688939000010578, 1.2054170000010345, 1.3570316000004823, 1.4850609000004624, 1.7570568000010098]",,,,,,,,,,,,,,,,,,,,,,,,,,,,,,,,,,,7,001,F,2023_Feb_09_1320,student_TT_local,2021.1.4,59.829295054717065,
,None,None,None,None,None,None,None,None,None,None,critic,obsess,6.5,7.5,video&audio/sentence5_TT_3X.mp4,video&audio/zephyr_TT_3X.mp4,fusion,zephyr,None,,,,,,,,,,,0,17,17,10,,,,,,,,,,,,,,,,,,,,,,,,,,,,,,,,,,,,,,,,,,,,,,,,,,,,,,,,None, critic,"['c', 'r', 'i', 't', 'i', 'c', 'return']","[0.3921965999998065, 0.6482541999994282, 0.8081591999998636, 1.0563517999999021, 1.168126000000484, 1.3766034000000218, 1.8803021000003355]",,,,,,,,,,,,,,,,,,,,,,,,,,,,,,,,,,,7,001,F,2023_Feb_09_1320,student_TT_local,2021.1.4,59.829295054717065,
,None,None,None,None,None,None,None,None,None,None,novice,parcel,6.5,7.5,video&audio/sentence5_TT_3X.mp4,video&audio/primal_TT_3X.mp4,entail,primal,None,,,,,,,,,,,0,18,18,4,,,,,,,,,,,,,,,,,,,,,,,,,,,,,,,,,,,,,,,,,,,,,,,,,,,,,,,,None, novice,"['n', 'p', 'o', 'v', 'backspace', 'backspace', 'backspace', 'o', 'v', 'i', 'c', 'e', 'return']","[0.5902115999997477, 0.742036099998586, 0.7660785999996733, 0.9421172999991541, 1.4700030000003608, 1.646493799999007, 1.8224647999995796, 2.495094699999754, 2.73412129999997, 2.8947981000001164, 3.1423498000003747, 3.2621788999986165, 3.8465770999991946]",,,,,,,,,,,,,,,,,,,,,,,,,,,,,,,,,,,7,001,F,2023_Feb_09_1320,student_TT_local,2021.1.4,59.829295054717065,
,None,None,None,None,None,None,None,None,None,None,deduct,hippie,6.5,7.5,video&audio/sentence3_TT_3X.mp4,video&audio/hearth_TT_3X.mp4,herbal,hearth,None,,,,,,,,,,,0,19,19,14,,,,,,,,,,,,,,,,,,,,,,,,,,,,,,,,,,,,,,,,,,,,,,,,,,,,,,,,None, deduct,"['d', 'e', 'd', 'u', 'c', 't', 'return']","[0.5447556999988592, 0.75261429999955, 0.9285409999993135, 1.1285776999993686, 1.320925799998804, 1.5926509000000806, 2.0005533000003197]",,,,,,,,,,,,,,,,,,,,,,,,,,,,,,,,,,,7,001,F,2023_Feb_09_1320,student_TT_local,2021.1.4,59.829295054717065,
,None,None,None,None,None,None,None,None,None,None,binder,forage,19.5,20.5,video&audio/Sentence6_touch_edited.mp4,video&audio/campus_touch_edited.mp4,allure,campus,None,,,,,,,,,,,0,20,20,29,,,,,,,,,,,,,,,,,,,,,,,,,,,,,,,,,,,,,,,,,,,,,,,,,,,,,,,,None, binder,"['b', '9', 'backspace', 'i', 'n', 'd', 'e', 'r', 'return']","[0.5588372000001982, 0.7508611000012024, 1.4309121999995114, 2.190685300000041, 2.3348526999998285, 2.470972900000561, 2.6150252999996155, 2.7348794999998063, 3.0709244000008766]",,,,,,,,,,,,,,,,,,,,,,,,,,,,,,,,,,,7,001,F,2023_Feb_09_1320,student_TT_local,2021.1.4,59.829295054717065,
,None,None,None,None,None,None,None,None,None,None,murmur,ritual,19.5,20.5,video&audio/Sentence6_touch_edited.mp4,video&audio/clergy_touch_edited.mp4,portal,clergy,None,,,,,,,,,,,0,21,21,17,,,,,,,,,,,,,,,,,,,,,,,,,,,,,,,,,,,,,,,,,,,,,,,,,,,,,,,,None, murmur,"['m', 'u', 'r', 'm', 'u', 'r', 'return']","[0.5246658999985812, 0.8047274999989895, 0.972522599999138, 1.1485335999987, 1.3486296999999468, 1.5088739999991958, 2.044934399998965]",,,,,,,,,,,,,,,,,,,,,,,,,,,,,,,,,,,7,001,F,2023_Feb_09_1320,student_TT_local,2021.1.4,59.829295054717065,
,None,None,None,None,None,None,None,None,None,None,quarry,covert,6.5,7.5,video&audio/sentence6_TT_3X.mp4,video&audio/patent_TT_3X.mp4,defame,patent,None,,,,,,,,,,,0,22,22,11,,,,,,,,,,,,,,,,,,,,,,,,,,,,,,,,,,,,,,,,,,,,,,,,,,,,,,,,None, quarry,"['q', 'u', 'a', 'r', 'r', 'y', 'return']","[0.453533800000514, 0.6215742999993381, 0.8059706000003644, 1.221539699999994, 1.3657610999998724, 1.525633299999754, 2.013928999998825]",,,,,,,,,,,,,,,,,,,,,,,,,,,,,,,,,,,7,001,F,2023_Feb_09_1320,student_TT_local,2021.1.4,59.829295054717065,
,None,None,None,None,None,None,None,None,None,None,mirage,malady,6.5,7.5,video&audio/sentence1_TT_3X.mp4,video&audio/shrewd_TT_3X.mp4,revoke,shrewd,None,,,,,,,,,,,0,23,23,6,,,,,,,,,,,,,,,,,,,,,,,,,,,,,,,,,,,,,,,,,,,,,,,,,,,,,,,,None, mirage,"['m', 'i', 'r', 'a', 'g', 'e', 'return']","[0.8377104999999574, 0.9578634000008606, 1.1019902000007278, 1.28577740000037, 1.5019806000000244, 1.6138447000012093, 2.0460031000002346]",,,,,,,,,,,,,,,,,,,,,,,,,,,,,,,,,,,7,001,F,2023_Feb_09_1320,student_TT_local,2021.1.4,59.829295054717065,
,None,None,None,None,None,None,None,None,None,None,impose,belfry,19.5,20.5,video&audio/Sentence6_touch_edited.mp4,video&audio/girdle_touch_edited.mp4,linear,girdle,None,,,,,,,,,,,0,24,24,23,,,,,,,,,,,,,,,,,,,,,,,,,,,,,,,,,,,,,,,,,,,,,,,,,,,,,,,,None, impos,"['i', 'm', 'p', 'o', 's', 'return']","[0.6629027999988466, 0.7981569000003219, 1.0062383999993472, 1.1739920999989408, 1.2949075999986235, 1.6789610999985598]",,,,,,,,,,,,,,,,,,,,,,,,,,,,,,,,,,,7,001,F,2023_Feb_09_1320,student_TT_local,2021.1.4,59.829295054717065,
,None,None,None,None,None,None,None,None,None,None,fodder,devise,19.5,20.5,video&audio/Sentence1_touch_edited.mp4,video&audio/mangle_touch_edited.mp4,warble,mangle,None,,,,,,,,,,,0,25,25,24,,,,,,,,,,,,,,,,,,,,,,,,,,,,,,,,,,,,,,,,,,,,,,,,,,,,,,,,None, fodder,"['f', 'o', 'd', 'd', 'e', 'r', 'return']","[0.7072998000003281, 0.8437025000002905, 1.0515498999993724, 1.1960620999998355, 1.3394300999989355, 1.4760982999996486, 1.8282151999992493]",,,,,,,,,,,,,,,,,,,,,,,,,,,,,,,,,,,7,001,F,2023_Feb_09_1320,student_TT_local,2021.1.4,59.829295054717065,
,None,None,None,None,None,None,None,None,None,None,manure,picket,19.5,20.5,video&audio/Sentence5_touch_edited.mp4,video&audio/parish_touch_edited.mp4,gullet,parish,None,,,,,,,,,,,0,26,26,28,,,,,,,,,,,,,,,,,,,,,,,,,,,,,,,,,,,,,,,,,,,,,,,,,,,,,,,,None, manure,"['m', 'a', 'n', 'u', 'r', 'e', 'return']","[0.5624281999989762, 0.7221672999985458, 1.1144524999999703, 1.354393199999322, 1.4906962999993993, 1.6111593999994511, 1.9062379999995755]",,,,,,,,,,,,,,,,,,,,,,,,,,,,,,,,,,,7,001,F,2023_Feb_09_1320,student_TT_local,2021.1.4,59.829295054717065,
,None,None,None,None,None,None,None,None,None,None,savant,cervix,19.5,20.5,video&audio/Sentence2_touch_edited.mp4,video&audio/cobble_touch_edited.mp4,export,cobble,None,,,,,,,,,,,0,27,27,19,,,,,,,,,,,,,,,,,,,,,,,,,,,,,,,,,,,,,,,,,,,,,,,,,,,,,,,,None, savant,"['s', 'a', 'v', 'a', 'n', 't', 'return']","[0.4550673000012466, 0.6390529000000242, 0.8390484000010474, 0.9277921000011702, 1.119120200000907, 1.2389842000011413, 1.4631850000005215]",,,,,,,,,,,,,,,,,,,,,,,,,,,,,,,,,,,7,001,F,2023_Feb_09_1320,student_TT_local,2021.1.4,59.829295054717065,
,None,None,None,None,None,None,None,None,None,None,revolt,virile,6.5,7.5,video&audio/sentence6_TT_3X.mp4,video&audio/joiner_TT_3X.mp4,apathy,joiner,None,,,,,,,,,,,0,28,28,5,,,,,,,,,,,,,,,,,,,,,,,,,,,,,,,,,,,,,,,,,,,,,,,,,,,,,,,,None, revolt,"['r', 'e', 'v', 'o', 'l', 't', 'return']","[0.4948588999995991, 0.6464961000001495, 0.8221723000006023, 0.9426619999994728, 1.1267102000001614, 1.2786758999991434, 1.702144099999714]",,,,,,,,,,,,,,,,,,,,,,,,,,,,,,,,,,,7,001,F,2023_Feb_09_1320,student_TT_local,2021.1.4,59.829295054717065,
,None,None,None,None,None,None,None,None,None,None,sherry,jackal,6.5,7.5,video&audio/sentence4_TT_3X.mp4,video&audio/hamlet_TT_3X.mp4,shroud,hamlet,None,,,,,,,,,,,0,29,29,9,,,,,,,,,,,,,,,,,,,,,,,,,,,,,,,,,,,,,,,,,,,,,,,,,,,,,,,,None, sherry,"['s', 'h', 'e', 'r', 'r', 'y', 'return']","[0.3710542999997415, 0.5071559000007255, 0.6511045999995986, 0.8030409999992116, 0.9711293999989721, 1.132060800000545, 1.5071430999996664]",,,,,,,,,,,,,,,,,,,,,,,,,,,,,,,,,,,7,001,F,2023_Feb_09_1320,student_TT_local,2021.1.4,59.829295054717065,
,,,,,,,,,,,,,,,,,,,,typingRatingScale.png,"How would you rate your typing performance in the previous section?

Press a number on your keyboard according to the rating scale below to give your answer. Your first answer will be accepted.",,,,,,,,,,,,,0,0,0,0,,,,,,,,,,,,,,,,,,,,,,,,,,,,,,,,,,,,,,,,,,,,,,,,,,,,,,,,['3'],[19.5791621999997],,,,,,,,,,,,,,,,,,,,,,,,,,,,,,,,,7,001,F,2023_Feb_09_1320,student_TT_local,2021.1.4,59.829295054717065,
,,,,,,,,,,,,,,,,,,,,imageryCheckScale.png,"In the previous section did you imagine yourself typing?

Press a number on your keyboard according to the rating scale below to give your answer. Your first answer will be accepted.",,,,,,,,,,,,,0,1,1,1,,,,,,,,,,,,,,,,,,,,,,,,,,,,,,,,,,,,,,,,,,,,,,,,,,,,,,,,['1'],[18.19818430000123],,,,,,,,,,,,,,,,,,,,,,,,,,,,,,,,,7,001,F,2023_Feb_09_1320,student_TT_local,2021.1.4,59.829295054717065,
,None,None,None,None,None,None,None,None,None,None,binder,forage,19.5,20.5,video&audio/Sentence6_touch_edited.mp4,video&audio/campus_touch_edited.mp4,allure,campus,None,,,,,,,,,,,,,,,,,,,,,,,,,,,0,0,0,29,,,,,,,,,,,,,,,,,,,,,,,,,,,,,,,,,,,,,,,,,,,,,,None,None,"['b', 'u', 't', 't', 'e', 'r', 'return']","[0.9182054000011703, 1.0542118000012124, 1.2943575999997847, 1.4385442000002513, 1.5984874999994645, 1.7023989999997866, 1.8303630000009434]",None, allure,"['a', 'l', 'l', 'u', 'r', 'e', 'return']","[1.043507899999895, 1.2987716000006913, 1.4668512999996892, 1.7068385000002309, 1.891179000000193, 2.0350027000004047, 2.546934899999542]",,,,,,,,,,,,,,,,,,,,,,,,,7,001,F,2023_Feb_09_1320,student_TT_local,2021.1.4,59.829295054717065,
,None,None,None,None,None,None,None,None,None,None,sherry,jackal,6.5,7.5,video&audio/sentence4_TT_3X.mp4,video&audio/hamlet_TT_3X.mp4,shroud,hamlet,None,,,,,,,,,,,,,,,,,,,,,,,,,,,0,1,1,9,,,,,,,,,,,,,,,,,,,,,,,,,,,,,,,,,,,,,,,,,,,,,,,None,,,None, shroud,"['s', 'h', 'r', 'o', 'u', 'd', 'return']","[0.9443031000009796, 1.1038629000013316, 1.2721424000010302, 1.4159937000003993, 1.5919499000010546, 1.736103200000798, 2.4399097000004986]",,,,,,,,,,,,,,,,,,,,,,,,,7,001,F,2023_Feb_09_1320,student_TT_local,2021.1.4,59.829295054717065,
,None,None,None,None,None,None,None,None,None,None,deduct,hippie,6.5,7.5,video&audio/sentence3_TT_3X.mp4,video&audio/hearth_TT_3X.mp4,herbal,hearth,None,,,,,,,,,,,,,,,,,,,,,,,,,,,0,2,2,14,,,,,,,,,,,,,,,,,,,,,,,,,,,,,,,,,,,,,,,,,,,,,,,None,,,None, herbal,"['h', 'e', 'r', 'b', 'a', 'l', 'return']","[0.6557797999994364, 0.7837823999998363, 0.9357645999989472, 1.0637561999992613, 1.720337999999174, 2.040161699998862, 2.6641236999985267]",,,,,,,,,,,,,,,,,,,,,,,,,7,001,F,2023_Feb_09_1320,student_TT_local,2021.1.4,59.829295054717065,
,"Remember to type as QUICKLY and ACCURATELY as possible after the 'get ready' prompt.

Ask the experimenter any questions now. Please put on the headphones.

You will get one practice trial. Press 'enter/return' when you are ready to start the practice.","Remember to type as QUICKLY and ACCURATELY as you can after the 'get ready' prompt.

Ask the experimenter any questions now. Please put on the headphones.

You will get one practice trial. Press 'enter/return' when you are ready to start the practice.",video&audio/Example_AOMI_total.png,1.8,0.7,None,None,None,None,None,jargon,frugal,6.5,7.5,video&audio/sentence3_TT_3X.mp4,video&audio/oppose_TT_3X.mp4,ghetto,oppose,None,,,,,,,,,,,,,,,,,,,,,,,,,,,0,3,3,2,,,,,,,,,,,,,,,,,,,,,,,,,,,,,,,,,,,,,,,,,,,,,,,None,,,None, ghetto,"['g', 'h', 'e', 't', 't', 'o', 'return']","[0.6838161000014225, 0.7720879999997123, 0.9318548000010196, 1.163848300000609, 1.3724058999996487, 2.196158700000524, 2.6198806000011245]",,,,,,,,,,,,,,,,,,,,,,,,,7,001,F,2023_Feb_09_1320,student_TT_local,2021.1.4,59.829295054717065,
,None,None,None,None,None,None,None,None,None,None,impose,belfry,19.5,20.5,video&audio/Sentence6_touch_edited.mp4,video&audio/girdle_touch_edited.mp4,linear,girdle,None,,,,,,,,,,,,,,,,,,,,,,,,,,,0,4,4,23,,,,,,,,,,,,,,,,,,,,,,,,,,,,,,,,,,,,,,,,,,,,,,,None,,,None, linear,"['i', 'e', 'backspace', 'n', 'e', 'a', 'r', 'return']","[1.2282058999990113, 1.5241757000003417, 2.0678986000002624, 2.5798029999987193, 3.0440466000000015, 3.2362052999997104, 3.3886060000004363, 3.772522499999468]",,,,,,,,,,,,,,,,,,,,,,,,,7,001,F,2023_Feb_09_1320,student_TT_local,2021.1.4,59.829295054717065,
,None,None,None,None,None,None,None,None,None,None,mirage,malady,6.5,7.5,video&audio/sentence1_TT_3X.mp4,video&audio/shrewd_TT_3X.mp4,revoke,shrewd,None,,,,,,,,,,,,,,,,,,,,,,,,,,,0,5,5,6,,,,,,,,,,,,,,,,,,,,,,,,,,,,,,,,,,,,,,,,,,,,,,,None,,,None, revoke,"['r', 'e', 'v', 'o', 'k', 'e', 'return']","[0.951608600000327, 1.1124116999999387, 1.8558126999996603, 2.423427499999889, 2.8796696000008524, 2.991649600000528, 3.3513856000008673]",,,,,,,,,,,,,,,,,,,,,,,,,7,001,F,2023_Feb_09_1320,student_TT_local,2021.1.4,59.829295054717065,
,None,None,None,None,None,None,None,None,None,None,savant,cervix,19.5,20.5,video&audio/Sentence2_touch_edited.mp4,video&audio/cobble_touch_edited.mp4,export,cobble,None,,,,,,,,,,,,,,,,,,,,,,,,,,,0,6,6,19,,,,,,,,,,,,,,,,,,,,,,,,,,,,,,,,,,,,,,,,,,,,,,,None,,,None, export,"['e', 'x', 'p', 'o', 'r', 't', 'return']","[0.879345999999714, 1.3032156999997824, 1.4709691000007297, 1.927904899999703, 2.09543499999927, 2.318823400000838, 2.5911192999992636]",,,,,,,,,,,,,,,,,,,,,,,,,7,001,F,2023_Feb_09_1320,student_TT_local,2021.1.4,59.829295054717065,
,None,None,None,None,None,None,None,None,None,None,satire,cortex,19.5,20.5,video&audio/Sentence4_touch_edited.mp4,video&audio/induce_touch_edited.mp4,mussel,induce,None,,,,,,,,,,,,,,,,,,,,,,,,,,,0,7,7,21,,,,,,,,,,,,,,,,,,,,,,,,,,,,,,,,,,,,,,,,,,,,,,,None,,,None, mussel,"['m', 'u', 's', 's', 'e', 'l', 'return']","[0.6842586000002484, 1.0047032999991643, 1.3164345999994111, 1.4843854999999166, 1.7087757999997848, 1.8773337000002357, 2.4206307000004017]",,,,,,,,,,,,,,,,,,,,,,,,,7,001,F,2023_Feb_09_1320,student_TT_local,2021.1.4,59.829295054717065,
,None,None,None,None,None,None,None,None,None,None,strife,tariff,6.5,7.5,video&audio/sentence2_TT_3X.mp4,video&audio/delude_TT_3X.mp4,galley,delude,None,,,,,,,,,,,,,,,,,,,,,,,,,,,0,8,8,7,,,,,,,,,,,,,,,,,,,,,,,,,,,,,,,,,,,,,,,,,,,,,,,None,,,None, gallery,"['g', 'a', 'semicolon', 'semicolon', 'e', 'backspace', 'backspace', 'backspace', 'l', 'l', 'e', 'r', 'y']","[0.5141538000007131, 0.6824269999997341, 0.9141514000002644, 1.0981475999997201, 1.2901447000003827, 1.9221120000001974, 2.154228700001113, 2.4743056999996043, 3.2340666000000056, 3.3947496000000683, 3.579091800000242, 3.690229600000748, 4.146377500001108]",,,,,,,,,,,,,,,,,,,,,,,,,7,001,F,2023_Feb_09_1320,student_TT_local,2021.1.4,59.829295054717065,
,None,None,None,None,None,None,None,None,None,None,sonnet,confer,6.5,7.5,video&audio/sentence1_TT_3X.mp4,video&audio/innate_TT_3X.mp4,tamper,innate,None,,,,,,,,,,,,,,,,,,,,,,,,,,,0,9,9,12,,,,,,,,,,,,,,,,,,,,,,,,,,,,,,,,,,,,,,,,,,,,,,,None,,,None, tamper,"['t', 'a', 'm', 'p', 'e', 'r', 'return']","[0.26339759999973467, 0.4554945999989286, 0.6471979999987525, 0.9193009999999049, 1.0871260999992955, 1.2231128999992507, 1.5992283999985375]",,,,,,,,,,,,,,,,,,,,,,,,,7,001,F,2023_Feb_09_1320,student_TT_local,2021.1.4,59.829295054717065,
,None,None,None,None,None,None,None,None,None,None,murmur,ritual,19.5,20.5,video&audio/Sentence6_touch_edited.mp4,video&audio/clergy_touch_edited.mp4,portal,clergy,None,,,,,,,,,,,,,,,,,,,,,,,,,,,0,10,10,17,,,,,,,,,,,,,,,,,,,,,,,,,,,,,,,,,,,,,,,,,,,,,,,None,,,None, portal,"['p', 'o', 'r', 't', 'a', 'l', 'return']","[0.6933210000006511, 0.9168777000013506, 1.1569288999999117, 1.340938000001188, 1.6054514000006748, 1.7812720000001718, 2.1810273000010056]",,,,,,,,,,,,,,,,,,,,,,,,,7,001,F,2023_Feb_09_1320,student_TT_local,2021.1.4,59.829295054717065,
,None,None,None,None,None,None,None,None,None,None,pursue,debtor,19.5,20.5,video&audio/Sentence1_touch_edited.mp4,video&audio/output_touch_edited.mp4,uphold,output,None,,,,,,,,,,,,,,,,,,,,,,,,,,,0,11,11,18,,,,,,,,,,,,,,,,,,,,,,,,,,,,,,,,,,,,,,,,,,,,,,,None,,,None, uphold,"['u', 'p', 'h', 'o', 'l', 'd', 'return']","[0.7000127999999677, 0.86808419999943, 1.123851399999694, 1.3078765999998723, 1.5397257999993599, 1.723833599999125, 2.051940999999715]",,,,,,,,,,,,,,,,,,,,,,,,,7,001,F,2023_Feb_09_1320,student_TT_local,2021.1.4,59.829295054717065,
,None,None,None,None,None,None,None,None,None,None,revolt,virile,6.5,7.5,video&audio/sentence6_TT_3X.mp4,video&audio/joiner_TT_3X.mp4,apathy,joiner,None,,,,,,,,,,,,,,,,,,,,,,,,,,,0,12,12,5,,,,,,,,,,,,,,,,,,,,,,,,,,,,,,,,,,,,,,,,,,,,,,,None,,,None, apathy,"['a', 'p', 'a', 't', 'h', 'y', 'return']","[0.8852585000004183, 1.0854806999996072, 1.2373834000009083, 1.478142800000569, 1.597976999999446, 1.7733344999996916, 2.333521800001108]",,,,,,,,,,,,,,,,,,,,,,,,,7,001,F,2023_Feb_09_1320,student_TT_local,2021.1.4,59.829295054717065,
,None,None,None,None,None,None,None,None,None,None,legion,subdue,19.5,20.5,video&audio/Sentence3_touch_edited.mp4,video&audio/feudal_touch_edited.mp4,matron,feudal,None,,,,,,,,,,,,,,,,,,,,,,,,,,,0,13,13,26,,,,,,,,,,,,,,,,,,,,,,,,,,,,,,,,,,,,,,,,,,,,,,,None,,,None, matron,"['m', 'a', 't', 'r', 'o', 'n', 'return']","[0.9182510999999067, 1.038330200000928, 1.2864151000012498, 1.4386339000011503, 1.5584533000001102, 1.734285100001216, 2.33455160000085]",,,,,,,,,,,,,,,,,,,,,,,,,7,001,F,2023_Feb_09_1320,student_TT_local,2021.1.4,59.829295054717065,
,None,None,None,None,None,None,None,None,None,None,quarry,covert,6.5,7.5,video&audio/sentence6_TT_3X.mp4,video&audio/patent_TT_3X.mp4,defame,patent,None,,,,,,,,,,,,,,,,,,,,,,,,,,,0,14,14,11,,,,,,,,,,,,,,,,,,,,,,,,,,,,,,,,,,,,,,,,,,,,,,,None,,,None, defame,"['d', 'e', 'f', 'a', 'm', 'e', 'return']","[1.0781610000012734, 1.2378060999999434, 1.430072700000892, 1.573793300000034, 2.253811600001427, 2.3579801000014413, 3.1663165999998455]",,,,,,,,,,,,,,,,,,,,,,,,,7,001,F,2023_Feb_09_1320,student_TT_local,2021.1.4,59.829295054717065,
,None,None,None,None,None,None,None,None,None,None,coerce,falter,19.5,20.5,video&audio/Sentence4_touch_edited.mp4,video&audio/tandem_touch_edited.mp4,origin,tandem,None,,,,,,,,,,,,,,,,,,,,,,,,,,,0,15,15,15,,,,,,,,,,,,,,,,,,,,,,,,,,,,,,,,,,,,,,,,,,,,,,,None,,,None, origin,"['o', 'r', 'i', 'g', 'i', 'n', 'return']","[0.7282002000010834, 0.9045143000003009, 1.0801136000009137, 1.328067500000543, 1.47280690000116, 1.6890409000006912, 2.3923868000001676]",,,,,,,,,,,,,,,,,,,,,,,,,7,001,F,2023_Feb_09_1320,student_TT_local,2021.1.4,59.829295054717065,
,"While you watch the video, imagine yourself typing the word on the screen, like how you did in the imagery practice. While you watch the video and imagine this, rest your hands on your keyboard but DO NOT type until AFTER you see the typing prompt.

Press 'enter/return' to go to the next page.","While watching the video, imagine yourself typing the word on the screen, like how you did in the imagery practice. While you watch the video and imagine this, rest your hands on your keyboard but DO NOT type until AFTER you see the typing prompt.

Press 'enter/return' to go to the next page.",video&audio/Example_AOMI_imagine.png,1.6,1,butter,6.5,7.5,video&audio/amount_TT_3X.mp4,video&audio/butter_TT_3X.mp4,plight,ascend,6.5,7.5,video&audio/sentence2_TT_3X.mp4,video&audio/metric_TT_3X.mp4,eatery,metric,2 = AOMIspec,,,,,,,,,,,,,,,,,,,,,,,,,,,0,16,16,1,,,,,,,,,,,,,,,,,,,,,,,,,,,,,,,,,,,,,,,,,,,,,,,None,,,None, eatery,"['a', 'backspace', 'e', 'a', 't', 'e', 'r', 'y', 'return']","[0.8863297999996576, 1.558380100001159, 1.8708354000009422, 2.039347400001134, 2.3344369000005827, 2.5183653000003687, 2.7583296000011615, 3.6302164000007906, 4.350436000000627]",,,,,,,,,,,,,,,,,,,,,,,,,7,001,F,2023_Feb_09_1320,student_TT_local,2021.1.4,59.829295054717065,
,None,None,None,None,None,None,None,None,None,None,infirm,pulpit,6.5,7.5,video&audio/sentence4_TT_3X.mp4,video&audio/oblige_TT_3X.mp4,mystic,oblige,None,,,,,,,,,,,,,,,,,,,,,,,,,,,0,17,17,3,,,,,,,,,,,,,,,,,,,,,,,,,,,,,,,,,,,,,,,,,,,,,,,None,,,None, mystic,"['m', 'y', 's', 't', 'i', 'c', 'return']","[0.7160009000017453, 0.93174800000088, 1.3476613000002544, 1.5876169000002847, 1.7401183000001765, 1.9396300000007614, 2.499579500001346]",,,,,,,,,,,,,,,,,,,,,,,,,7,001,F,2023_Feb_09_1320,student_TT_local,2021.1.4,59.829295054717065,
,None,None,None,None,None,None,None,None,None,None,convoy,plasma,19.5,20.5,video&audio/Sentence5_touch_edited.mp4,video&audio/jailer_touch_edited.mp4,nettle,jailer,None,,,,,,,,,,,,,,,,,,,,,,,,,,,0,18,18,16,,,,,,,,,,,,,,,,,,,,,,,,,,,,,,,,,,,,,,,,,,,,,,,None,,,None, nettle,"['n', 'e', 't', 't', 'l', 'e', 'return']","[0.6803750999988551, 1.1282542999997531, 1.4482596999987436, 1.6006933999997273, 1.7523518999987573, 1.8888311999999132, 2.4482549999993353]",,,,,,,,,,,,,,,,,,,,,,,,,7,001,F,2023_Feb_09_1320,student_TT_local,2021.1.4,59.829295054717065,
,None,None,None,None,None,None,None,None,None,None,musket,subtle,19.5,20.5,video&audio/Sentence5_touch_edited.mp4,video&audio/fungal_touch_edited.mp4,mucous,fungal,None,,,,,,,,,,,,,,,,,,,,,,,,,,,0,19,19,22,,,,,,,,,,,,,,,,,,,,,,,,,,,,,,,,,,,,,,,,,,,,,,,None,,,None, mucous,"['m', 'u', 'c', 'o', 'u', 's', 'return']","[0.5534162000003562, 0.905244199999288, 1.0974544000000606, 1.2655446999997366, 1.4253761999989365, 1.5691545999998198, 2.104985599999054]",,,,,,,,,,,,,,,,,,,,,,,,,7,001,F,2023_Feb_09_1320,student_TT_local,2021.1.4,59.829295054717065,
,None,None,None,None,None,None,None,None,None,None,upkeep,kipper,19.5,20.5,video&audio/Sentence2_touch_edited.mp4,video&audio/meddle_touch_edited.mp4,divert,meddle,None,,,,,,,,,,,,,,,,,,,,,,,,,,,0,20,20,25,,,,,,,,,,,,,,,,,,,,,,,,,,,,,,,,,,,,,,,,,,,,,,,None,,,None, divert,"['d', 'i', 'v', 'e', 'r', 't', 'return']","[0.6630258999994112, 0.7993729999998322, 0.9911606999994547, 1.1669744999999239, 1.375733200000468, 1.5440629000004265, 2.023082300000169]",,,,,,,,,,,,,,,,,,,,,,,,,7,001,F,2023_Feb_09_1320,student_TT_local,2021.1.4,59.829295054717065,
,"This is Section 2.

In this section, your task will be the same as before - that is, to type the word you see on the screen AFTER the typing prompt. However, rather than just seeing the word before typing, you will also see a video of someone typing different words to what you will need to type at different speeds. 

Press 'enter/return' to go to the next page.","This is Section 4. 

In this section, your task will be the same as before - that is, to type the word you see on the screen after the typing prompt. You will see a video again, like in Section 2, only this time, the video will show someone the same word that you must type at different speeds. 

Press 'enter/return' to go to the next page.",video&audio/Example_AOMI_layout.png,1.6,0.6,afford,19.5,20.5,video&audio/amount_touch_edited.mp4,video&audio/afford_touch_edited.mp4,vanity,matrix,6.5,7.5,video&audio/sentence1_TT_3X.mp4,video&audio/hinder_TT_3X.mp4,breach,hinder,1 = AOMIgen,,,,,,,,,,,,,,,,,,,,,,,,,,,0,21,21,0,,,,,,,,,,,,,,,,,,,,,,,,,,,,,,,,,,,,,,,,,,,,,,,None,,,None, breach,"['b', 'r', 'e', 'a', 'c', 'h', 'return']","[0.6258906000002753, 0.730303799999092, 0.8578471000000718, 1.0422527999999147, 1.2421441999995295, 1.3381166999988636, 1.922015799998917]",,,,,,,,,,,,,,,,,,,,,,,,,7,001,F,2023_Feb_09_1320,student_TT_local,2021.1.4,59.829295054717065,
,None,None,None,None,None,None,None,None,None,None,potent,neural,6.5,7.5,video&audio/sentence2_TT_3X.mp4,video&audio/septic_TT_3X.mp4,ordain,septic,None,,,,,,,,,,,,,,,,,,,,,,,,,,,0,22,22,13,,,,,,,,,,,,,,,,,,,,,,,,,,,,,,,,,,,,,,,,,,,,,,,None,,,None, ordain,"['o', 'r', 'd', 'a', 'i', 'n', 'return']","[0.41148880000037025, 0.5711210999998002, 0.7868772999991052, 0.931466800000635, 1.075010000000475, 1.2593520999998873, 1.6829600999990362]",,,,,,,,,,,,,,,,,,,,,,,,,7,001,F,2023_Feb_09_1320,student_TT_local,2021.1.4,59.829295054717065,
,None,None,None,None,None,None,None,None,None,None,critic,obsess,6.5,7.5,video&audio/sentence5_TT_3X.mp4,video&audio/zephyr_TT_3X.mp4,fusion,zephyr,None,,,,,,,,,,,,,,,,,,,,,,,,,,,0,23,23,10,,,,,,,,,,,,,,,,,,,,,,,,,,,,,,,,,,,,,,,,,,,,,,,None,,,None, fusion,"['f', 'u', 's', 'i', 'o', 'n', 'return']","[0.7969013000001723, 0.9080892000001768, 1.083977500000401, 1.2362603999990824, 1.3725064999998722, 1.5565609999994194, 1.9882175999991887]",,,,,,,,,,,,,,,,,,,,,,,,,7,001,F,2023_Feb_09_1320,student_TT_local,2021.1.4,59.829295054717065,
,None,None,None,None,None,None,None,None,None,None,parole,solemn,6.5,7.5,video&audio/sentence3_TT_3X.mp4,video&audio/befall_TT_3X.mp4,ration,befall,None,,,,,,,,,,,,,,,,,,,,,,,,,,,0,24,24,8,,,,,,,,,,,,,,,,,,,,,,,,,,,,,,,,,,,,,,,,,,,,,,,None,,,None, ration,"['r', 'a', 't', 'i', 'o', 'n', 'return']","[0.6640842999986489, 0.7919964999982767, 0.9681169999985286, 1.1128974999992352, 1.2162175999983447, 1.3841773999993165, 1.792417499998919]",,,,,,,,,,,,,,,,,,,,,,,,,7,001,F,2023_Feb_09_1320,student_TT_local,2021.1.4,59.829295054717065,
,None,None,None,None,None,None,None,None,None,None,fodder,devise,19.5,20.5,video&audio/Sentence1_touch_edited.mp4,video&audio/mangle_touch_edited.mp4,warble,mangle,None,,,,,,,,,,,,,,,,,,,,,,,,,,,0,25,25,24,,,,,,,,,,,,,,,,,,,,,,,,,,,,,,,,,,,,,,,,,,,,,,,None,,,None, warble,"['w', 'a', 'r', 'b', 'k', 'l', 'e', 'equal', 'equal', 'backspace', 'backspace', 'backspace', 'backspace', 'backspace', 'l', 'e', 'return']","[0.6953077000016492, 0.8304443000015453, 1.4305501000017102, 1.534428000000844, 1.695330800001102, 1.7021971000012854, 1.8388131000010617, 2.2062889000008, 2.398489500001233, 3.230401400000119, 3.398389700001644, 3.5586284000000887, 3.7182646000001114, 3.902583400000367, 4.606350200001543, 4.711096100001669, 5.158958500000153]",,,,,,,,,,,,,,,,,,,,,,,,,7,001,F,2023_Feb_09_1320,student_TT_local,2021.1.4,59.829295054717065,
,None,None,None,None,None,None,None,None,None,None,goblet,botany,19.5,20.5,video&audio/Sentence4_touch_edited.mp4,video&audio/trench_touch_edited.mp4,ethnic,trench,None,,,,,,,,,,,,,,,,,,,,,,,,,,,0,26,26,27,,,,,,,,,,,,,,,,,,,,,,,,,,,,,,,,,,,,,,,,,,,,,,,None,,,None, ethnic,"['e', 't', 'h', 'n', 'i', 'c', 'return']","[0.7776294000013877, 0.9697950000008859, 1.1226377000002685, 1.3225287000004755, 1.425748300000123, 1.577691300000879, 2.0418845000003785]",,,,,,,,,,,,,,,,,,,,,,,,,7,001,F,2023_Feb_09_1320,student_TT_local,2021.1.4,59.829295054717065,
,None,None,None,None,None,None,None,None,None,None,brazen,piston,19.5,20.5,video&audio/Sentence3_touch_edited.mp4,video&audio/caviar_touch_edited.mp4,shrill,caviar,None,,,,,,,,,,,,,,,,,,,,,,,,,,,0,27,27,20,,,,,,,,,,,,,,,,,,,,,,,,,,,,,,,,,,,,,,,,,,,,,,,None,,,None, shrill,"['s', 'h', 'r', 'i', 'l', 'l', 'return']","[0.902369199999157, 1.486622799999168, 1.7023252999988472, 2.014712599999257, 2.4555590999989363, 2.5988352999993367, 2.8944077999985893]",,,,,,,,,,,,,,,,,,,,,,,,,7,001,F,2023_Feb_09_1320,student_TT_local,2021.1.4,59.829295054717065,
,None,None,None,None,None,None,None,None,None,None,novice,parcel,6.5,7.5,video&audio/sentence5_TT_3X.mp4,video&audio/primal_TT_3X.mp4,entail,primal,None,,,,,,,,,,,,,,,,,,,,,,,,,,,0,28,28,4,,,,,,,,,,,,,,,,,,,,,,,,,,,,,,,,,,,,,,,,,,,,,,,None,,,None, entail,"['e', 'n', 't', 's', 'backspace', 'a', 'i', 'l', 'return']","[0.845403699999224, 1.0292059999992489, 1.6687378999995417, 2.2451037999999244, 2.828799599999911, 3.221174999998766, 3.4048284999989846, 3.6288017999995645, 4.077165499998955]",,,,,,,,,,,,,,,,,,,,,,,,,7,001,F,2023_Feb_09_1320,student_TT_local,2021.1.4,59.829295054717065,
,None,None,None,None,None,None,None,None,None,None,manure,picket,19.5,20.5,video&audio/Sentence5_touch_edited.mp4,video&audio/parish_touch_edited.mp4,gullet,parish,None,,,,,,,,,,,,,,,,,,,,,,,,,,,0,29,29,28,,,,,,,,,,,,,,,,,,,,,,,,,,,,,,,,,,,,,,,,,,,,,,,None,,,None, gullet,"['g', 'u', 'l', 'l', 'e', 't', 'return']","[0.6572517000004154, 0.7780416999994486, 1.3132241999992402, 1.465220699999918, 1.649368599999434, 2.233377999998993, 2.665447999999742]",,,,,,,,,,,,,,,,,,,,,,,,,7,001,F,2023_Feb_09_1320,student_TT_local,2021.1.4,59.829295054717065,
,,,,,,,,,,,,,,,,,,,,typingRatingScale.png,"How would you rate your typing performance in the previous section?

Press a number on your keyboard according to the rating scale below to give your answer. Your first answer will be accepted.",,,,,,,,,,,,,,,,,,,,,,,,,,,,,0,0,0,0,,,,,,,,,,,,,,,,,,,,,,,,,,,,,,,,,,,,,,,,,,,,,,,,,,['4'],[10.559935200000837],,,,,,,,,,,,,,,,,,,,,,,7,001,F,2023_Feb_09_1320,student_TT_local,2021.1.4,59.829295054717065,
,,,,,,,,,,,,,,,,,,,,visualImageryScale.png,"While imagining yourself typing, how clear was your visual image?

Press a number on your keyboard according to the rating scale below to give your answer. Your first answer will be accepted.",,,,,,,,,,,,,,,,,,,,,,,,,,,,,0,1,1,1,,,,,,,,,,,,,,,,,,,,,,,,,,,,,,,,,,,,,,,,,,,,,,,,,,['4'],[9.03102460000082],,,,,,,,,,,,,,,,,,,,,,,7,001,F,2023_Feb_09_1320,student_TT_local,2021.1.4,59.829295054717065,
,,,,,,,,,,,,,,,,,,,,kinestheticImageryScale.png,"While imagining yourself typing, how intense were the sensations associated with the imagined movement?

Press a number on your keyboard according to the rating scale below to give your answer. Your first answer will be accepted.",,,,,,,,,,,,,,,,,,,,,,,,,,,,,0,2,2,2,,,,,,,,,,,,,,,,,,,,,,,,,,,,,,,,,,,,,,,,,,,,,,,,,,['4'],[11.779011500000706],,,,,,,,,,,,,,,,,,,,,,,7,001,F,2023_Feb_09_1320,student_TT_local,2021.1.4,59.829295054717065,
,"Remember to type as QUICKLY and ACCURATELY as possible after the 'get ready' prompt.

Ask the experimenter any questions now. Please put on the headphones.

You will get one practice trial. Press 'enter/return' when you are ready to start the practice.","Remember to type as QUICKLY and ACCURATELY as you can after the 'get ready' prompt.

Ask the experimenter any questions now. Please put on the headphones.

You will get one practice trial. Press 'enter/return' when you are ready to start the practice.",video&audio/Example_AOMI_total.png,1.8,0.7,None,None,None,None,None,jargon,frugal,6.5,7.5,video&audio/sentence3_TT_3X.mp4,video&audio/oppose_TT_3X.mp4,ghetto,oppose,None,,,,,,,,,,,,,,,,,,,,,,,,,,,,,,,,,,,,,,,,,,,0,0,0,2,,,,,,,,,,,,,,,,,,,,,,,,,,,,,,,,,,,,,,,,3465.805097200001,3472.3120233,None, butter,"['b', 'u', 't', 't', 'e', 'r', 'return']","[0.7679637000001094, 0.8957076000006055, 1.255738100000599, 1.3998855000008916, 1.5996585000011692, 1.736463700000968, 2.2316802000004827]",3510.4681962999994,3516.9703187000005,None, frugal,"['f', 'r', 'u', 'g', 'a', 'l', 'return']","[1.0566703999993479, 1.2885219999989204, 1.4567769000004773, 1.6001956000000064, 1.7924344999992172, 1.9838736999990942, 2.5045236999994813]",,,,,,,,,,,7,001,F,2023_Feb_09_1320,student_TT_local,2021.1.4,59.829295054717065,
,None,None,None,None,None,None,None,None,None,None,musket,subtle,19.5,20.5,video&audio/Sentence5_touch_edited.mp4,video&audio/fungal_touch_edited.mp4,mucous,fungal,None,,,,,,,,,,,,,,,,,,,,,,,,,,,,,,,,,,,,,,,,,,,0,1,1,22,,,,,,,,,,,,,,,,,,,,,,,,,,,,,,,,,,,,,,,,,,,,,,3520.5075093000005,3540.0078896000005,None, subtle,"['s', 'u', 'b', 't', 'l', 'e', 'return']","[0.7073626000001241, 0.8346705999992992, 1.042824300000575, 1.483026300000347, 1.626580099999046, 1.7394005000005563, 2.3235955000000104]",,,,,,,,,,,7,001,F,2023_Feb_09_1320,student_TT_local,2021.1.4,59.829295054717065,
,None,None,None,None,None,None,None,None,None,None,murmur,ritual,19.5,20.5,video&audio/Sentence6_touch_edited.mp4,video&audio/clergy_touch_edited.mp4,portal,clergy,None,,,,,,,,,,,,,,,,,,,,,,,,,,,,,,,,,,,,,,,,,,,0,2,2,17,,,,,,,,,,,,,,,,,,,,,,,,,,,,,,,,,,,,,,,,,,,,,,3543.3612304999997,3562.861130100001,None, ritual,"['r', 'i', 't', 'u', 'a', 'l', 'return']","[0.8447181999999884, 0.9648582999998325, 1.1086694999994506, 1.260475299999598, 1.3730959999993502, 1.5405556000005163, 1.9732208999994327]",,,,,,,,,,,7,001,F,2023_Feb_09_1320,student_TT_local,2021.1.4,59.829295054717065,
,None,None,None,None,None,None,None,None,None,None,coerce,falter,19.5,20.5,video&audio/Sentence4_touch_edited.mp4,video&audio/tandem_touch_edited.mp4,origin,tandem,None,,,,,,,,,,,,,,,,,,,,,,,,,,,,,,,,,,,,,,,,,,,0,3,3,15,,,,,,,,,,,,,,,,,,,,,,,,,,,,,,,,,,,,,,,,,,,,,,3565.8651836,3585.365383900001,None, falter,"['f', 'a', 't', 'e', 'r', 'return']","[0.6759428000004846, 0.8120290999995632, 1.228154500000528, 1.36401719999958, 1.4840662999995402, 1.8440069000007497]",,,,,,,,,,,7,001,F,2023_Feb_09_1320,student_TT_local,2021.1.4,59.829295054717065,
,None,None,None,None,None,None,None,None,None,None,deduct,hippie,6.5,7.5,video&audio/sentence3_TT_3X.mp4,video&audio/hearth_TT_3X.mp4,herbal,hearth,None,,,,,,,,,,,,,,,,,,,,,,,,,,,,,,,,,,,,,,,,,,,0,4,4,14,,,,,,,,,,,,,,,,,,,,,,,,,,,,,,,,,,,,,,,,,,,,,,3588.269615,3594.7768625,None, hippie,"['h', 'i', 'p', 'p', 'i', 'e', 'return']","[0.6261128000005556, 0.753742400000192, 1.2338377000014589, 1.4016363999999157, 1.5539712000008876, 1.6822893000007753, 2.0096843000010267]",,,,,,,,,,,7,001,F,2023_Feb_09_1320,student_TT_local,2021.1.4,59.829295054717065,
,None,None,None,None,None,None,None,None,None,None,brazen,piston,19.5,20.5,video&audio/Sentence3_touch_edited.mp4,video&audio/caviar_touch_edited.mp4,shrill,caviar,None,,,,,,,,,,,,,,,,,,,,,,,,,,,,,,,,,,,,,,,,,,,0,5,5,20,,,,,,,,,,,,,,,,,,,,,,,,,,,,,,,,,,,,,,,,,,,,,,3597.8142724,3617.3140329999997,None, piston,"['p', 'i', 's', 't', 'o', 'n']","[0.5594440000004397, 0.727320600000894, 0.8877916000001278, 1.087788000000728, 1.2077659000005951, 1.3513394000001426]",,,,,,,,,,,7,001,F,2023_Feb_09_1320,student_TT_local,2021.1.4,59.829295054717065,
,None,None,None,None,None,None,None,None,None,None,convoy,plasma,19.5,20.5,video&audio/Sentence5_touch_edited.mp4,video&audio/jailer_touch_edited.mp4,nettle,jailer,None,,,,,,,,,,,,,,,,,,,,,,,,,,,,,,,,,,,,,,,,,,,0,6,6,16,,,,,,,,,,,,,,,,,,,,,,,,,,,,,,,,,,,,,,,,,,,,,,3620.3015454000006,3639.8017842,None, plasma,"['p', 'l', 'a', 's', 'm', 'a', 'return']","[0.6087528999996721, 0.7286908000005496, 0.9053142000011576, 1.0898279000011826, 1.2488064000008308, 1.6487420000012207, 1.9289253999995708]",,,,,,,,,,,7,001,F,2023_Feb_09_1320,student_TT_local,2021.1.4,59.829295054717065,
,None,None,None,None,None,None,None,None,None,None,satire,cortex,19.5,20.5,video&audio/Sentence4_touch_edited.mp4,video&audio/induce_touch_edited.mp4,mussel,induce,None,,,,,,,,,,,,,,,,,,,,,,,,,,,,,,,,,,,,,,,,,,,0,7,7,21,,,,,,,,,,,,,,,,,,,,,,,,,,,,,,,,,,,,,,,,,,,,,,3642.7720390000004,3662.272957100001,None, cortex,"['c', 'o', 't', 'e', 'x']","[0.8100835000004736, 0.9233576000005996, 1.666648600001281, 1.9779668000010133, 2.426116100001309]",,,,,,,,,,,7,001,F,2023_Feb_09_1320,student_TT_local,2021.1.4,59.829295054717065,
,None,None,None,None,None,None,None,None,None,None,parole,solemn,6.5,7.5,video&audio/sentence3_TT_3X.mp4,video&audio/befall_TT_3X.mp4,ration,befall,None,,,,,,,,,,,,,,,,,,,,,,,,,,,,,,,,,,,,,,,,,,,0,8,8,8,,,,,,,,,,,,,,,,,,,,,,,,,,,,,,,,,,,,,,,,,,,,,,3666.0923348000006,3672.600370700001,None, solemn,"['s', 'l', 'e', 'm', 'n', 'return']","[0.5942880000002333, 0.9545546000008471, 1.1142524000006233, 1.282426800000394, 1.826332700000421, 2.1621575000008306]",,,,,,,,,,,7,001,F,2023_Feb_09_1320,student_TT_local,2021.1.4,59.829295054717065,
,None,None,None,None,None,None,None,None,None,None,fodder,devise,19.5,20.5,video&audio/Sentence1_touch_edited.mp4,video&audio/mangle_touch_edited.mp4,warble,mangle,None,,,,,,,,,,,,,,,,,,,,,,,,,,,,,,,,,,,,,,,,,,,0,9,9,24,,,,,,,,,,,,,,,,,,,,,,,,,,,,,,,,,,,,,,,,,,,,,,3675.8038793000005,3695.3036495999995,None, devise,"['d', 'e', 'v', 'i', 's', 'e', 'return']","[0.6341517000000749, 0.8259847000008449, 1.1616533000014897, 1.250096100000519, 1.4175694000005024, 1.6100399000006291, 1.825735900001746]",,,,,,,,,,,7,001,F,2023_Feb_09_1320,student_TT_local,2021.1.4,59.829295054717065,
,None,None,None,None,None,None,None,None,None,None,novice,parcel,6.5,7.5,video&audio/sentence5_TT_3X.mp4,video&audio/primal_TT_3X.mp4,entail,primal,None,,,,,,,,,,,,,,,,,,,,,,,,,,,,,,,,,,,,,,,,,,,0,10,10,4,,,,,,,,,,,,,,,,,,,,,,,,,,,,,,,,,,,,,,,,,,,,,,3718.3795891,3724.887787300001,None, parcel,"['p', 'a', 'r', 'c', 'e', 'l', 'return']","[0.9717920000002778, 1.0835050999994564, 1.2434555999989243, 1.795360599999185, 2.156247799999619, 2.3398465999998734, 2.7313735999996425]",,,,,,,,,,,7,001,F,2023_Feb_09_1320,student_TT_local,2021.1.4,59.829295054717065,
,None,None,None,None,None,None,None,None,None,None,impose,belfry,19.5,20.5,video&audio/Sentence6_touch_edited.mp4,video&audio/girdle_touch_edited.mp4,linear,girdle,None,,,,,,,,,,,,,,,,,,,,,,,,,,,,,,,,,,,,,,,,,,,0,11,11,23,,,,,,,,,,,,,,,,,,,,,,,,,,,,,,,,,,,,,,,,,,,,,,3728.656424400001,3748.1575107,None, belfry,"['b', 'e', 'l', 'f', 'r', 'y', 'return']","[0.9488759000014397, 1.1807069000005868, 1.7574498000012682, 2.060750700000426, 2.493206500001179, 2.589506899999833, 2.9971700000005512]",,,,,,,,,,,7,001,F,2023_Feb_09_1320,student_TT_local,2021.1.4,59.829295054717065,
,"While you watch the video, imagine yourself typing the word on the screen, like how you did in the imagery practice. While you watch the video and imagine this, rest your hands on your keyboard but DO NOT type until AFTER you see the typing prompt.

Press 'enter/return' to go to the next page.","While watching the video, imagine yourself typing the word on the screen, like how you did in the imagery practice. While you watch the video and imagine this, rest your hands on your keyboard but DO NOT type until AFTER you see the typing prompt.

Press 'enter/return' to go to the next page.",video&audio/Example_AOMI_imagine.png,1.6,1,butter,6.5,7.5,video&audio/amount_TT_3X.mp4,video&audio/butter_TT_3X.mp4,plight,ascend,6.5,7.5,video&audio/sentence2_TT_3X.mp4,video&audio/metric_TT_3X.mp4,eatery,metric,2 = AOMIspec,,,,,,,,,,,,,,,,,,,,,,,,,,,,,,,,,,,,,,,,,,,0,12,12,1,,,,,,,,,,,,,,,,,,,,,,,,,,,,,,,,,,,,,,,,,,,,,,3752.1945091999996,3758.7018476999992,None, ascend,"['a', 's', 'c', 'e', 'n', 'd', 'return']","[0.9158886999994138, 1.1400589000004402, 1.3399907000002713, 1.4593784000007872, 1.6039813000006689, 1.7633009000001039, 2.0915629000010085]",,,,,,,,,,,7,001,F,2023_Feb_09_1320,student_TT_local,2021.1.4,59.829295054717065,
,None,None,None,None,None,None,None,None,None,None,quarry,covert,6.5,7.5,video&audio/sentence6_TT_3X.mp4,video&audio/patent_TT_3X.mp4,defame,patent,None,,,,,,,,,,,,,,,,,,,,,,,,,,,,,,,,,,,,,,,,,,,0,13,13,11,,,,,,,,,,,,,,,,,,,,,,,,,,,,,,,,,,,,,,,,,,,,,,3761.8220759999995,3768.3301230000006,None, covert,"['c', 'o', 'v', 'e', 'r', 't', 'return']","[0.8413478999991639, 0.9687520999996195, 1.121060999999827, 1.2649461000000883, 1.4005787999994936, 1.5770465999994485, 1.7211232999998174]",,,,,,,,,,,7,001,F,2023_Feb_09_1320,student_TT_local,2021.1.4,59.829295054717065,
,None,None,None,None,None,None,None,None,None,None,savant,cervix,19.5,20.5,video&audio/Sentence2_touch_edited.mp4,video&audio/cobble_touch_edited.mp4,export,cobble,None,,,,,,,,,,,,,,,,,,,,,,,,,,,,,,,,,,,,,,,,,,,0,14,14,19,,,,,,,,,,,,,,,,,,,,,,,,,,,,,,,,,,,,,,,,,,,,,,3771.083639200001,3790.5841477999993,None, cervix,"['c', 'e', 'r', 'v', 'i', 'x', 'return']","[0.5070675999995728, 0.674665599999571, 0.842285599999741, 1.0825560000012047, 1.2023303000005399, 1.498177299999952, 1.882640600000741]",,,,,,,,,,,7,001,F,2023_Feb_09_1320,student_TT_local,2021.1.4,59.829295054717065,
,None,None,None,None,None,None,None,None,None,None,critic,obsess,6.5,7.5,video&audio/sentence5_TT_3X.mp4,video&audio/zephyr_TT_3X.mp4,fusion,zephyr,None,,,,,,,,,,,,,,,,,,,,,,,,,,,,,,,,,,,,,,,,,,,0,15,15,10,,,,,,,,,,,,,,,,,,,,,,,,,,,,,,,,,,,,,,,,,,,,,,3793.504355,3800.0123324999995,None, obsess,"['o', 'b', 's', 'e', 's', 's', 'return']","[0.41098950000014156, 0.6505923000004259, 1.0585928000000422, 1.3144193000007363, 1.5383612999994511, 1.698324799999682, 1.9783163000010973]",,,,,,,,,,,7,001,F,2023_Feb_09_1320,student_TT_local,2021.1.4,59.829295054717065,
,None,None,None,None,None,None,None,None,None,None,binder,forage,19.5,20.5,video&audio/Sentence6_touch_edited.mp4,video&audio/campus_touch_edited.mp4,allure,campus,None,,,,,,,,,,,,,,,,,,,,,,,,,,,,,,,,,,,,,,,,,,,0,16,16,29,,,,,,,,,,,,,,,,,,,,,,,,,,,,,,,,,,,,,,,,,,,,,,3803.0158578,3822.515576500001,None, forage,"['f', 'o', 'r', 'a', 'g', 'e', 'return']","[0.9013412999993307, 1.0222256999986712, 1.2062490999996953, 1.3738645999983419, 1.5417742999998154, 1.6613245999997162, 1.8853698999992048]",,,,,,,,,,,7,001,F,2023_Feb_09_1320,student_TT_local,2021.1.4,59.829295054717065,
,None,None,None,None,None,None,None,None,None,None,upkeep,kipper,19.5,20.5,video&audio/Sentence2_touch_edited.mp4,video&audio/meddle_touch_edited.mp4,divert,meddle,None,,,,,,,,,,,,,,,,,,,,,,,,,,,,,,,,,,,,,,,,,,,0,17,17,25,,,,,,,,,,,,,,,,,,,,,,,,,,,,,,,,,,,,,,,,,,,,,,3825.4528997000007,3844.9529754000005,None, kipper,"['k', 'i', 'p', 'p', 'e', 'r', 'return']","[0.8213078999997379, 0.9974075999998604, 1.3011690999992425, 1.4695574999987002, 1.6135873000002903, 1.7812924999998359, 1.9817308000001503]",,,,,,,,,,,7,001,F,2023_Feb_09_1320,student_TT_local,2021.1.4,59.829295054717065,
,None,None,None,None,None,None,None,None,None,None,goblet,botany,19.5,20.5,video&audio/Sentence4_touch_edited.mp4,video&audio/trench_touch_edited.mp4,ethnic,trench,None,,,,,,,,,,,,,,,,,,,,,,,,,,,,,,,,,,,,,,,,,,,0,18,18,27,,,,,,,,,,,,,,,,,,,,,,,,,,,,,,,,,,,,,,,,,,,,,,3847.9740661000005,3867.4901665999996,None, botany,"['b', 'o', 't', 'a', 'n', 'y', 'return']","[0.5080075000005309, 1.292294500000935, 1.5557998000003863, 1.771875700000237, 2.4444767000004504, 2.660696500000995, 3.0444157000001724]",,,,,,,,,,,7,001,F,2023_Feb_09_1320,student_TT_local,2021.1.4,59.829295054717065,
,None,None,None,None,None,None,None,None,None,None,manure,picket,19.5,20.5,video&audio/Sentence5_touch_edited.mp4,video&audio/parish_touch_edited.mp4,gullet,parish,None,,,,,,,,,,,,,,,,,,,,,,,,,,,,,,,,,,,,,,,,,,,0,19,19,28,,,,,,,,,,,,,,,,,,,,,,,,,,,,,,,,,,,,,,,,,,,,,,3871.5604383,3891.0606393000007,None, picket,"['p', 'i', 'c', 'k', 'e', 't', 'return']","[0.9732428999996046, 1.1170406999990519, 1.2847994999992807, 1.43703479999931, 1.564647100000002, 1.7329066999991483, 1.9732093999991775]",,,,,,,,,,,7,001,F,2023_Feb_09_1320,student_TT_local,2021.1.4,59.829295054717065,
,None,None,None,None,None,None,None,None,None,None,mirage,malady,6.5,7.5,video&audio/sentence1_TT_3X.mp4,video&audio/shrewd_TT_3X.mp4,revoke,shrewd,None,,,,,,,,,,,,,,,,,,,,,,,,,,,,,,,,,,,,,,,,,,,0,20,20,6,,,,,,,,,,,,,,,,,,,,,,,,,,,,,,,,,,,,,,,,,,,,,,3904.6250616999996,3911.1327133999994,None, malady,"['m', 'a', 'l', 'a', 'd', 'return']","[0.93831339999997, 1.0978607999986707, 1.3056839999990189, 1.4816952999990463, 1.7456802999986394, 2.433901099999275]",,,,,,,,,,,7,001,F,2023_Feb_09_1320,student_TT_local,2021.1.4,59.829295054717065,
,None,None,None,None,None,None,None,None,None,None,infirm,pulpit,6.5,7.5,video&audio/sentence4_TT_3X.mp4,video&audio/oblige_TT_3X.mp4,mystic,oblige,None,,,,,,,,,,,,,,,,,,,,,,,,,,,,,,,,,,,,,,,,,,,0,21,21,3,,,,,,,,,,,,,,,,,,,,,,,,,,,,,,,,,,,,,,,,,,,,,,3914.6029382000006,3921.1108993999997,None, pulpit,"['p', 'u', 'l', 'p', 'i', 't', 'return']","[0.859396599998945, 1.059469199999512, 1.2913688999997248, 1.5154662999993889, 1.691714200000206, 1.8353705999998056, 2.29976809999971]",,,,,,,,,,,7,001,F,2023_Feb_09_1320,student_TT_local,2021.1.4,59.829295054717065,
,None,None,None,None,None,None,None,None,None,None,legion,subdue,19.5,20.5,video&audio/Sentence3_touch_edited.mp4,video&audio/feudal_touch_edited.mp4,matron,feudal,None,,,,,,,,,,,,,,,,,,,,,,,,,,,,,,,,,,,,,,,,,,,0,22,22,26,,,,,,,,,,,,,,,,,,,,,,,,,,,,,,,,,,,,,,,,,,,,,,3924.4477419000004,3943.9474542,None, subdue,"['s', 'u', 'b', 'd', 'u', 'e', 'return']","[0.7823688999997103, 0.9183324000005086, 1.1183823000010307, 1.2943945000006352, 1.4231524000006175, 1.5185135000010632, 1.8303070000001753]",,,,,,,,,,,7,001,F,2023_Feb_09_1320,student_TT_local,2021.1.4,59.829295054717065,
,None,None,None,None,None,None,None,None,None,None,revolt,virile,6.5,7.5,video&audio/sentence6_TT_3X.mp4,video&audio/joiner_TT_3X.mp4,apathy,joiner,None,,,,,,,,,,,,,,,,,,,,,,,,,,,,,,,,,,,,,,,,,,,0,23,23,5,,,,,,,,,,,,,,,,,,,,,,,,,,,,,,,,,,,,,,,,,,,,,,3946.8182208000007,3953.3268553999997,None, virile,"['v', 'r', 'backspace', 'i', 'r', 'i', 'l', 'e', 'return']","[0.8928706999995484, 1.1411511999995128, 1.5803324000007706, 2.0685386000004655, 2.4765581999999995, 2.5895994000002247, 2.756882300000143, 2.8765786999992997, 3.4209659000007377]",,,,,,,,,,,7,001,F,2023_Feb_09_1320,student_TT_local,2021.1.4,59.829295054717065,
,"This is Section 2.

In this section, your task will be the same as before - that is, to type the word you see on the screen AFTER the typing prompt. However, rather than just seeing the word before typing, you will also see a video of someone typing different words to what you will need to type at different speeds. 

Press 'enter/return' to go to the next page.","This is Section 4. 

In this section, your task will be the same as before - that is, to type the word you see on the screen after the typing prompt. You will see a video again, like in Section 2, only this time, the video will show someone the same word that you must type at different speeds. 

Press 'enter/return' to go to the next page.",video&audio/Example_AOMI_layout.png,1.6,0.6,afford,19.5,20.5,video&audio/amount_touch_edited.mp4,video&audio/afford_touch_edited.mp4,vanity,matrix,6.5,7.5,video&audio/sentence1_TT_3X.mp4,video&audio/hinder_TT_3X.mp4,breach,hinder,1 = AOMIgen,,,,,,,,,,,,,,,,,,,,,,,,,,,,,,,,,,,,,,,,,,,0,24,24,0,,,,,,,,,,,,,,,,,,,,,,,,,,,,,,,,,,,,,,,,,,,,,,3957.7787713000007,3964.2874681000003,None, matrix,"['m', 'a', 't', 'r', 'i', 'x', 'return']","[0.588578900000357, 0.6922324999995908, 0.9245484000002762, 1.3639886999990267, 1.8839318999998795, 2.180073199999242, 2.3162950000005367]",,,,,,,,,,,7,001,F,2023_Feb_09_1320,student_TT_local,2021.1.4,59.829295054717065,
,None,None,None,None,None,None,None,None,None,None,sherry,jackal,6.5,7.5,video&audio/sentence4_TT_3X.mp4,video&audio/hamlet_TT_3X.mp4,shroud,hamlet,None,,,,,,,,,,,,,,,,,,,,,,,,,,,,,,,,,,,,,,,,,,,0,25,25,9,,,,,,,,,,,,,,,,,,,,,,,,,,,,,,,,,,,,,,,,,,,,,,3967.6397014999993,3974.1474713,None, jackal,"['j', 'a', 'c', 'k', 'a', 'l', 'return']","[0.5912528999997448, 0.7349400999992213, 0.958887799999502, 1.0627509000005375, 1.207325100000162, 1.4236796999994112, 1.7989479000007123]",,,,,,,,,,,7,001,F,2023_Feb_09_1320,student_TT_local,2021.1.4,59.829295054717065,
,None,None,None,None,None,None,None,None,None,None,sonnet,confer,6.5,7.5,video&audio/sentence1_TT_3X.mp4,video&audio/innate_TT_3X.mp4,tamper,innate,None,,,,,,,,,,,,,,,,,,,,,,,,,,,,,,,,,,,,,,,,,,,0,26,26,12,,,,,,,,,,,,,,,,,,,,,,,,,,,,,,,,,,,,,,,,,,,,,,3976.9849748000006,3983.4926088,None, confer,"['c', 'o', 'n', 'f', 'e', 'r', 'return']","[1.086110500000359, 1.198404599999776, 1.4070190000002185, 1.5340064000010898, 1.7261723999999958, 1.8779609000011988, 1.9982639999998355]",,,,,,,,,,,7,001,F,2023_Feb_09_1320,student_TT_local,2021.1.4,59.829295054717065,
,None,None,None,None,None,None,None,None,None,None,potent,neural,6.5,7.5,video&audio/sentence2_TT_3X.mp4,video&audio/septic_TT_3X.mp4,ordain,septic,None,,,,,,,,,,,,,,,,,,,,,,,,,,,,,,,,,,,,,,,,,,,0,27,27,13,,,,,,,,,,,,,,,,,,,,,,,,,,,,,,,,,,,,,,,,,,,,,,3986.5291666000003,3993.0366389,None, neural,"['n', 'e', 'u', 'r', 'a', 'l', 'return']","[0.7738435999999638, 0.9252763999993476, 1.0691619999997783, 1.213296599999012, 1.381103499999881, 1.5095423999991908, 1.9256776000001992]",,,,,,,,,,,7,001,F,2023_Feb_09_1320,student_TT_local,2021.1.4,59.829295054717065,
,None,None,None,None,None,None,None,None,None,None,pursue,debtor,19.5,20.5,video&audio/Sentence1_touch_edited.mp4,video&audio/output_touch_edited.mp4,uphold,output,None,,,,,,,,,,,,,,,,,,,,,,,,,,,,,,,,,,,,,,,,,,,0,28,28,18,,,,,,,,,,,,,,,,,,,,,,,,,,,,,,,,,,,,,,,,,,,,,,3995.991140700001,4015.4914048,None, debtor,"['d', 'e', 'b', 't', 'o', 'r', 'return']","[0.5435226999998122, 0.7353325000003679, 0.9114466999999422, 1.247460399999909, 1.39949549999983, 1.5195170000006328, 2.040378800000326]",,,,,,,,,,,7,001,F,2023_Feb_09_1320,student_TT_local,2021.1.4,59.829295054717065,
,None,None,None,None,None,None,None,None,None,None,strife,tariff,6.5,7.5,video&audio/sentence2_TT_3X.mp4,video&audio/delude_TT_3X.mp4,galley,delude,None,,,,,,,,,,,,,,,,,,,,,,,,,,,,,,,,,,,,,,,,,,,0,29,29,7,,,,,,,,,,,,,,,,,,,,,,,,,,,,,,,,,,,,,,,,,,,,,,4018.5612725,4025.0692386,None, tariff,"['t', 'a', 'r', 'i', 'f', 'f', 'return']","[0.868949400000929, 1.0609734999998182, 1.1968768000006094, 1.357465000000957, 1.6533957999999984, 1.8057919000002585, 1.9896937000012258]",,,,,,,,,,,7,001,F,2023_Feb_09_1320,student_TT_local,2021.1.4,59.829295054717065,
,,,,,,,,,,,,,,,,,,,,typingRatingScale.png,"How would you rate your typing performance in the previous section?

Press a number on your keyboard according to the rating scale below to give your answer. Your first answer will be accepted.",,,,,,,,,,,,,,,,,,,,,,,,,,,,,,,,,,,,,,,,,,,,,0,0,0,0,,,,,,,,,,,,,,,,,,,,,,,,,,,,,,,,,,,,,,,,,,,,,,,,['5'],[7.009614799999326],,,,,,,,,7,001,F,2023_Feb_09_1320,student_TT_local,2021.1.4,59.829295054717065,
,,,,,,,,,,,,,,,,,,,,imageryCheckScale.png,"In the previous section did you imagine yourself typing?

Press a number on your keyboard according to the rating scale below to give your answer. Your first answer will be accepted.",,,,,,,,,,,,,,,,,,,,,,,,,,,,,,,,,,,,,,,,,,,,,0,1,1,1,,,,,,,,,,,,,,,,,,,,,,,,,,,,,,,,,,,,,,,,,,,,,,,,['1'],[6.890038100000311],,,,,,,,,7,001,F,2023_Feb_09_1320,student_TT_local,2021.1.4,59.829295054717065,
,None,None,None,None,None,None,None,None,None,None,quarry,covert,6.5,7.5,video&audio/sentence6_TT_3X.mp4,video&audio/patent_TT_3X.mp4,defame,patent,None,,,,,,,,,,,,,,,,,,,,,,,,,,,,,,,,,,,,,,,,,,,,,,,,,,,,,,,,,,,0,0,0,11,,,,,,,,,,,,,,,['p'],"['b', 'u', 't', 't', 'e', 'r', 'return']","[0.6376266999996005, 0.7417468000003282, 0.9980677999992622, 1.1819199999990815, 1.3736840999990818, 1.5018113999994966, 2.3655901000001904]",,,,,,,,,,,,,,,,,,,,,None,[0.9672632000001613],None, patent,"['a', 't', 'e', 'n', 'backspace', 'backspace', 'backspace', 'backspace', 'p', 'a', 't', 'e', 'n', 't', 'return']","[0.11956910000117205, 0.43991380000079516, 0.6559171999997488, 0.8076249000005191, 1.3039602999997442, 1.496494700000767, 1.6557408000007854, 1.8235125000010157, 2.7600287000004755, 3.207774900000004, 3.512238299999808, 3.663490799999636, 3.799465100000816, 3.9609343000010995, 4.799481500000184]",,,7,001,F,2023_Feb_09_1320,student_TT_local,2021.1.4,59.829295054717065,
,"While you watch the video, imagine yourself typing the word on the screen, like how you did in the imagery practice. While you watch the video and imagine this, rest your hands on your keyboard but DO NOT type until AFTER you see the typing prompt.

Press 'enter/return' to go to the next page.","While watching the video, imagine yourself typing the word on the screen, like how you did in the imagery practice. While you watch the video and imagine this, rest your hands on your keyboard but DO NOT type until AFTER you see the typing prompt.

Press 'enter/return' to go to the next page.",video&audio/Example_AOMI_imagine.png,1.6,1,butter,6.5,7.5,video&audio/amount_TT_3X.mp4,video&audio/butter_TT_3X.mp4,plight,ascend,6.5,7.5,video&audio/sentence2_TT_3X.mp4,video&audio/metric_TT_3X.mp4,eatery,metric,2 = AOMIspec,,,,,,,,,,,,,,,,,,,,,,,,,,,,,,,,,,,,,,,,,,,,,,,,,,,,,,,,,,,0,1,1,1,,,,,,,,,,,,,,,None,,,,,,,,,,,,,,,,,,,,,,,,,None, metric,"['m', 'e', 't', 'r', 'i', 'c', 'return']","[0.7649385000004258, 1.4685157999992953, 1.6209092999997665, 1.9248384999991686, 2.05288660000042, 2.2208147999990615, 2.78852150000057]",,,7,001,F,2023_Feb_09_1320,student_TT_local,2021.1.4,59.829295054717065,
,None,None,None,None,None,None,None,None,None,None,pursue,debtor,19.5,20.5,video&audio/Sentence1_touch_edited.mp4,video&audio/output_touch_edited.mp4,uphold,output,None,,,,,,,,,,,,,,,,,,,,,,,,,,,,,,,,,,,,,,,,,,,,,,,,,,,,,,,,,,,0,2,2,18,,,,,,,,,,,,,,,None,,,,,,,,,,,,,,,,,,,,,,,,,None, output,"['o', 'u', 't', 'p', 'u', 't', 'return']","[0.8570122000000993, 1.0317986999998539, 1.6241441000001942, 2.463754299998982, 2.856493399998726, 2.959846199999447, 3.279744600000413]",,,7,001,F,2023_Feb_09_1320,student_TT_local,2021.1.4,59.829295054717065,
,None,None,None,None,None,None,None,None,None,None,brazen,piston,19.5,20.5,video&audio/Sentence3_touch_edited.mp4,video&audio/caviar_touch_edited.mp4,shrill,caviar,None,,,,,,,,,,,,,,,,,,,,,,,,,,,,,,,,,,,,,,,,,,,,,,,,,,,,,,,,,,,0,3,3,20,,,,,,,,,,,,,,,None,,,,,,,,,,,,,,,,,,,,,,,,,None, caviar,"['c', 'a', 'v', 'i', 'a', 'r', 'return']","[0.49308170000040263, 0.636730100000932, 0.8926561000007496, 1.0686987999997655, 1.2528621000001294, 1.7247225000010076, 2.141089800001282]",,,7,001,F,2023_Feb_09_1320,student_TT_local,2021.1.4,59.829295054717065,
,None,None,None,None,None,None,None,None,None,None,satire,cortex,19.5,20.5,video&audio/Sentence4_touch_edited.mp4,video&audio/induce_touch_edited.mp4,mussel,induce,None,,,,,,,,,,,,,,,,,,,,,,,,,,,,,,,,,,,,,,,,,,,,,,,,,,,,,,,,,,,0,4,4,21,,,,,,,,,,,,,,,"['i', 'n']",,,,,,,,,,,,,,,,,,,,,,,,"[0.26773489999868616, 0.46754039999905217]",None, induce,"['i', 'n', 'd', 'u', 'c', 'e', 'return']","[1.1806601999996928, 1.3405655000005936, 1.5326511000002938, 1.6770285999991756, 1.804904999999053, 1.9247027999990678, 2.3164794000003894]",,,7,001,F,2023_Feb_09_1320,student_TT_local,2021.1.4,59.829295054717065,
,None,None,None,None,None,None,None,None,None,None,sherry,jackal,6.5,7.5,video&audio/sentence4_TT_3X.mp4,video&audio/hamlet_TT_3X.mp4,shroud,hamlet,None,,,,,,,,,,,,,,,,,,,,,,,,,,,,,,,,,,,,,,,,,,,,,,,,,,,,,,,,,,,0,5,5,9,,,,,,,,,,,,,,,None,,,,,,,,,,,,,,,,,,,,,,,,,None, hamlet,"['h', 'a', 'm', 'l', 'e', 't', 'return']","[0.8919773999987228, 1.0442942999998195, 1.2294542999989062, 1.380304399999659, 1.531982099999368, 1.6762127999991208, 1.9318335999996634]",,,7,001,F,2023_Feb_09_1320,student_TT_local,2021.1.4,59.829295054717065,
,None,None,None,None,None,None,None,None,None,None,novice,parcel,6.5,7.5,video&audio/sentence5_TT_3X.mp4,video&audio/primal_TT_3X.mp4,entail,primal,None,,,,,,,,,,,,,,,,,,,,,,,,,,,,,,,,,,,,,,,,,,,,,,,,,,,,,,,,,,,0,6,6,4,,,,,,,,,,,,,,,None,,,,,,,,,,,,,,,,,,,,,,,,,None, primal,"['p', 'r', 'i', 'm', 'a', 'l', 'return']","[0.806042800000796, 1.0532743000003393, 1.1898022000004858, 1.3812979000013001, 1.4930960000001505, 1.6292848000011873, 2.1171556000008422]",,,7,001,F,2023_Feb_09_1320,student_TT_local,2021.1.4,59.829295054717065,
,None,None,None,None,None,None,None,None,None,None,manure,picket,19.5,20.5,video&audio/Sentence5_touch_edited.mp4,video&audio/parish_touch_edited.mp4,gullet,parish,None,,,,,,,,,,,,,,,,,,,,,,,,,,,,,,,,,,,,,,,,,,,,,,,,,,,,,,,,,,,0,7,7,28,,,,,,,,,,,,,,,None,,,,,,,,,,,,,,,,,,,,,,,,,None, parish,"['p', 'a', 'r', 'i', 's', 'h', 'return']","[0.7340411000004678, 0.9017715000009048, 1.094126600000891, 1.2627719000010984, 1.3657270000003336, 1.5176938000004156, 1.9103162000010343]",,,7,001,F,2023_Feb_09_1320,student_TT_local,2021.1.4,59.829295054717065,
,None,None,None,None,None,None,None,None,None,None,sonnet,confer,6.5,7.5,video&audio/sentence1_TT_3X.mp4,video&audio/innate_TT_3X.mp4,tamper,innate,None,,,,,,,,,,,,,,,,,,,,,,,,,,,,,,,,,,,,,,,,,,,,,,,,,,,,,,,,,,,0,8,8,12,,,,,,,,,,,,,,,None,,,,,,,,,,,,,,,,,,,,,,,,,None, innate,"['i', 'n', 'n', 'a', 't', 'e', 'return']","[0.8042414999999892, 1.0520415999999386, 1.2041293999991467, 1.309018100000685, 1.5087493999999424, 1.6203150999990612, 1.9162718000006862]",,,7,001,F,2023_Feb_09_1320,student_TT_local,2021.1.4,59.829295054717065,
,None,None,None,None,None,None,None,None,None,None,parole,solemn,6.5,7.5,video&audio/sentence3_TT_3X.mp4,video&audio/befall_TT_3X.mp4,ration,befall,None,,,,,,,,,,,,,,,,,,,,,,,,,,,,,,,,,,,,,,,,,,,,,,,,,,,,,,,,,,,0,9,9,8,,,,,,,,,,,,,,,None,,,,,,,,,,,,,,,,,,,,,,,,,None, befall,"['b', 'e', 'f', 'a', 'l', 'l', 'return']","[1.221973399999115, 1.357908199999656, 1.8623232999998436, 1.9657197999986238, 2.173938399999315, 2.3264760000001843, 2.621903299999758]",,,7,001,F,2023_Feb_09_1320,student_TT_local,2021.1.4,59.829295054717065,
,None,None,None,None,None,None,None,None,None,None,goblet,botany,19.5,20.5,video&audio/Sentence4_touch_edited.mp4,video&audio/trench_touch_edited.mp4,ethnic,trench,None,,,,,,,,,,,,,,,,,,,,,,,,,,,,,,,,,,,,,,,,,,,,,,,,,,,,,,,,,,,0,10,10,27,,,,,,,,,,,,,,,None,,,,,,,,,,,,,,,,,,,,,,,,,None, trench,"['t', 'r', 'e', 'n', 'c', 'h', 'return']","[0.5699345000011817, 0.7626142999997683, 1.010432099999889, 1.274065800000244, 1.4819528000007267, 1.6111951000002591, 2.4179263999994873]",,,7,001,F,2023_Feb_09_1320,student_TT_local,2021.1.4,59.829295054717065,
,None,None,None,None,None,None,None,None,None,None,coerce,falter,19.5,20.5,video&audio/Sentence4_touch_edited.mp4,video&audio/tandem_touch_edited.mp4,origin,tandem,None,,,,,,,,,,,,,,,,,,,,,,,,,,,,,,,,,,,,,,,,,,,,,,,,,,,,,,,,,,,0,11,11,15,,,,,,,,,,,,,,,None,,,,,,,,,,,,,,,,,,,,,,,,,None, tandem,"['t', 'a', 'n', 'd', 'e', 'm', 'return']","[0.48316519999934826, 0.8187878999997338, 1.075044400000479, 1.4910022000003664, 1.8030252999997174, 1.9628284999998868, 2.4589066000007733]",,,7,001,F,2023_Feb_09_1320,student_TT_local,2021.1.4,59.829295054717065,
,None,None,None,None,None,None,None,None,None,None,savant,cervix,19.5,20.5,video&audio/Sentence2_touch_edited.mp4,video&audio/cobble_touch_edited.mp4,export,cobble,None,,,,,,,,,,,,,,,,,,,,,,,,,,,,,,,,,,,,,,,,,,,,,,,,,,,,,,,,,,,0,12,12,19,,,,,,,,,,,,,,,None,,,,,,,,,,,,,,,,,,,,,,,,,None, cobble,"['c', 'o', 'b', 'b', 'l', 'e', 'return']","[0.6804868999988685, 0.857044099999257, 1.0572925999986182, 1.2167314999987866, 1.3604610999991564, 1.5207739999987098, 1.8733997999988787]",,,7,001,F,2023_Feb_09_1320,student_TT_local,2021.1.4,59.829295054717065,
,None,None,None,None,None,None,None,None,None,None,binder,forage,19.5,20.5,video&audio/Sentence6_touch_edited.mp4,video&audio/campus_touch_edited.mp4,allure,campus,None,,,,,,,,,,,,,,,,,,,,,,,,,,,,,,,,,,,,,,,,,,,,,,,,,,,,,,,,,,,0,13,13,29,,,,,,,,,,,,,,,None,,,,,,,,,,,,,,,,,,,,,,,,,None, campus,"['c', 'a', 'm', 'p', 'u', 's', 'return']","[0.7654215000002296, 1.0219715000002907, 1.3174425000015617, 2.765638200000467, 3.0057517000004736, 3.1734125000002678, 3.4932161000015185]",,,7,001,F,2023_Feb_09_1320,student_TT_local,2021.1.4,59.829295054717065,
,None,None,None,None,None,None,None,None,None,None,infirm,pulpit,6.5,7.5,video&audio/sentence4_TT_3X.mp4,video&audio/oblige_TT_3X.mp4,mystic,oblige,None,,,,,,,,,,,,,,,,,,,,,,,,,,,,,,,,,,,,,,,,,,,,,,,,,,,,,,,,,,,0,14,14,3,,,,,,,,,,,,,,,None,,,,,,,,,,,,,,,,,,,,,,,,,None, oblige,"['o', 'b', 'l', 'i', 'g', 'e', 'return']","[0.5618764000009833, 0.7541856000007101, 0.9378353000010975, 1.130157000001418, 1.7301986000002216, 1.8180990000000747, 1.9620930000000953]",,,7,001,F,2023_Feb_09_1320,student_TT_local,2021.1.4,59.829295054717065,
,None,None,None,None,None,None,None,None,None,None,strife,tariff,6.5,7.5,video&audio/sentence2_TT_3X.mp4,video&audio/delude_TT_3X.mp4,galley,delude,None,,,,,,,,,,,,,,,,,,,,,,,,,,,,,,,,,,,,,,,,,,,,,,,,,,,,,,,,,,,0,15,15,7,,,,,,,,,,,,,,,None,,,,,,,,,,,,,,,,,,,,,,,,,None, delude,"['d', 'e', 'l', 'u', 'd', 'e', 'return']","[0.6276907999999821, 0.8190302000002703, 0.9718700000012177, 1.1399551000013162, 1.3070573000004515, 1.4510607000011078, 1.8434400000005553]",,,7,001,F,2023_Feb_09_1320,student_TT_local,2021.1.4,59.829295054717065,
,None,None,None,None,None,None,None,None,None,None,impose,belfry,19.5,20.5,video&audio/Sentence6_touch_edited.mp4,video&audio/girdle_touch_edited.mp4,linear,girdle,None,,,,,,,,,,,,,,,,,,,,,,,,,,,,,,,,,,,,,,,,,,,,,,,,,,,,,,,,,,,0,16,16,23,,,,,,,,,,,,,,,None,,,,,,,,,,,,,,,,,,,,,,,,,None, girdle,"['g', 'i', 'r', 'd', 'l', 'e', 'return']","[0.9192798000003677, 1.0555868999999802, 1.1757665000004636, 1.4153416000008292, 1.5351214000002074, 1.671618500000477, 1.8473642999997537]",,,7,001,F,2023_Feb_09_1320,student_TT_local,2021.1.4,59.829295054717065,
,None,None,None,None,None,None,None,None,None,None,mirage,malady,6.5,7.5,video&audio/sentence1_TT_3X.mp4,video&audio/shrewd_TT_3X.mp4,revoke,shrewd,None,,,,,,,,,,,,,,,,,,,,,,,,,,,,,,,,,,,,,,,,,,,,,,,,,,,,,,,,,,,0,17,17,6,,,,,,,,,,,,,,,None,,,,,,,,,,,,,,,,,,,,,,,,,None, sjrewd,"['s', 'j', 'r', 'e', 'w', 'd', 'return']","[1.7221011999990878, 1.8342123000002175, 2.0265667000003305, 2.1541006000006746, 2.3863626000002114, 2.5699160999993182, 3.010698300000513]",,,7,001,F,2023_Feb_09_1320,student_TT_local,2021.1.4,59.829295054717065,
,None,None,None,None,None,None,None,None,None,None,potent,neural,6.5,7.5,video&audio/sentence2_TT_3X.mp4,video&audio/septic_TT_3X.mp4,ordain,septic,None,,,,,,,,,,,,,,,,,,,,,,,,,,,,,,,,,,,,,,,,,,,,,,,,,,,,,,,,,,,0,18,18,13,,,,,,,,,,,,,,,None,,,,,,,,,,,,,,,,,,,,,,,,,None, septic,"['s', 'p', 't', 'i', 'c', 'backspace', 'backspace', 'backspace', 'backspace', 'e', 'p', 't', 'i', 'c', 'return']","[1.3507793999997375, 1.528155300000435, 1.686779400000887, 1.879353700000138, 2.0471030000007886, 3.0547678000002634, 3.3193430000010267, 3.5670781999997416, 3.8709216000006563, 4.654700700000831, 4.8306062999999995, 5.327450200000385, 5.702971800001251, 6.110781000001225, 6.862779700000829]",,,7,001,F,2023_Feb_09_1320,student_TT_local,2021.1.4,59.829295054717065,
,"Remember to type as QUICKLY and ACCURATELY as possible after the 'get ready' prompt.

Ask the experimenter any questions now. Please put on the headphones.

You will get one practice trial. Press 'enter/return' when you are ready to start the practice.","Remember to type as QUICKLY and ACCURATELY as you can after the 'get ready' prompt.

Ask the experimenter any questions now. Please put on the headphones.

You will get one practice trial. Press 'enter/return' when you are ready to start the practice.",video&audio/Example_AOMI_total.png,1.8,0.7,None,None,None,None,None,jargon,frugal,6.5,7.5,video&audio/sentence3_TT_3X.mp4,video&audio/oppose_TT_3X.mp4,ghetto,oppose,None,,,,,,,,,,,,,,,,,,,,,,,,,,,,,,,,,,,,,,,,,,,,,,,,,,,,,,,,,,,0,19,19,2,,,,,,,,,,,,,,,None,,,,,,,,,,,,,,,,,,,,,,,,,None, oppose,"['o', 'p', 'p', 'o', 's', 'e', 'return']","[0.6111923999997089, 0.986380199999985, 1.811161899999206, 2.2436946999987413, 2.4187781999989966, 2.5950784999986354, 2.9225084999998217]",,,7,001,F,2023_Feb_09_1320,student_TT_local,2021.1.4,59.829295054717065,
,None,None,None,None,None,None,None,None,None,None,convoy,plasma,19.5,20.5,video&audio/Sentence5_touch_edited.mp4,video&audio/jailer_touch_edited.mp4,nettle,jailer,None,,,,,,,,,,,,,,,,,,,,,,,,,,,,,,,,,,,,,,,,,,,,,,,,,,,,,,,,,,,0,20,20,16,,,,,,,,,,,,,,,None,,,,,,,,,,,,,,,,,,,,,,,,,None, jailer,"['j', 'a', 'i', 'l', 'e', 'r', 'return']","[0.5501898999991681, 0.7423542999986239, 1.11093129999972, 1.4299154999989696, 1.5659335999989707, 1.7661661000001914, 2.2379111999998713]",,,7,001,F,2023_Feb_09_1320,student_TT_local,2021.1.4,59.829295054717065,
,None,None,None,None,None,None,None,None,None,None,revolt,virile,6.5,7.5,video&audio/sentence6_TT_3X.mp4,video&audio/joiner_TT_3X.mp4,apathy,joiner,None,,,,,,,,,,,,,,,,,,,,,,,,,,,,,,,,,,,,,,,,,,,,,,,,,,,,,,,,,,,0,21,21,5,,,,,,,,,,,,,,,None,,,,,,,,,,,,,,,,,,,,,,,,,None, joiner,"['j', 'o', 'i', 'n', 'e', 'r', 'return']","[0.5087055000003602, 0.7008617000010418, 0.9329823000007309, 1.1966781999999512, 1.3805806000000302, 2.3166680000013002, 3.1410800000012387]",,,7,001,F,2023_Feb_09_1320,student_TT_local,2021.1.4,59.829295054717065,
,None,None,None,None,None,None,None,None,None,None,musket,subtle,19.5,20.5,video&audio/Sentence5_touch_edited.mp4,video&audio/fungal_touch_edited.mp4,mucous,fungal,None,,,,,,,,,,,,,,,,,,,,,,,,,,,,,,,,,,,,,,,,,,,,,,,,,,,,,,,,,,,0,22,22,22,,,,,,,,,,,,,,,None,,,,,,,,,,,,,,,,,,,,,,,,,None, fungal,"['f', 'u', 'n', 'g', 'a', 'l', 'return']","[0.9042190000000119, 1.3042239999995218, 1.69579049999993, 1.8958113999997295, 2.152035299999625, 2.496188600000096, 3.0241626999995788]",,,7,001,F,2023_Feb_09_1320,student_TT_local,2021.1.4,59.829295054717065,
,None,None,None,None,None,None,None,None,None,None,upkeep,kipper,19.5,20.5,video&audio/Sentence2_touch_edited.mp4,video&audio/meddle_touch_edited.mp4,divert,meddle,None,,,,,,,,,,,,,,,,,,,,,,,,,,,,,,,,,,,,,,,,,,,,,,,,,,,,,,,,,,,0,23,23,25,,,,,,,,,,,,,,,None,,,,,,,,,,,,,,,,,,,,,,,,,None, meddle,"['m', 'e', 'd', 'd', 'l', 'e', 'return']","[0.8232929000005242, 1.014155099999698, 1.3022772999993322, 1.4625644000007014, 1.590863100000206, 1.7265012999996543, 2.1342951000005996]",,,7,001,F,2023_Feb_09_1320,student_TT_local,2021.1.4,59.829295054717065,
,None,None,None,None,None,None,None,None,None,None,murmur,ritual,19.5,20.5,video&audio/Sentence6_touch_edited.mp4,video&audio/clergy_touch_edited.mp4,portal,clergy,None,,,,,,,,,,,,,,,,,,,,,,,,,,,,,,,,,,,,,,,,,,,,,,,,,,,,,,,,,,,0,24,24,17,,,,,,,,,,,,,,,None,,,,,,,,,,,,,,,,,,,,,,,,,None, clergy,"['c', 'l', 'e', 'r', 'g', 'u', 'backspace', 'y', 'return']","[0.7649092999999993, 0.9650410000012926, 1.1728661000015563, 1.3891198000001168, 1.7568127000013192, 1.9489268000015727, 2.804773700001533, 3.2290443000001687, 3.72531650000019]",,,7,001,F,2023_Feb_09_1320,student_TT_local,2021.1.4,59.829295054717065,
,None,None,None,None,None,None,None,None,None,None,legion,subdue,19.5,20.5,video&audio/Sentence3_touch_edited.mp4,video&audio/feudal_touch_edited.mp4,matron,feudal,None,,,,,,,,,,,,,,,,,,,,,,,,,,,,,,,,,,,,,,,,,,,,,,,,,,,,,,,,,,,0,25,25,26,,,,,,,,,,,,,,,None,,,,,,,,,,,,,,,,,,,,,,,,,None, feudal,"['f', 'e', 'u', 'd', 'a', 'l', 'return']","[1.3364036999992095, 1.47243619999972, 1.6245822999990196, 1.8002698999989661, 1.9123363999988214, 2.064602999998897, 2.5447696999999607]",,,7,001,F,2023_Feb_09_1320,student_TT_local,2021.1.4,59.829295054717065,
,None,None,None,None,None,None,None,None,None,None,fodder,devise,19.5,20.5,video&audio/Sentence1_touch_edited.mp4,video&audio/mangle_touch_edited.mp4,warble,mangle,None,,,,,,,,,,,,,,,,,,,,,,,,,,,,,,,,,,,,,,,,,,,,,,,,,,,,,,,,,,,0,26,26,24,,,,,,,,,,,,,,,None,,,,,,,,,,,,,,,,,,,,,,,,,None, mangle,"['m', 'a', 'n', 'g', 'l', 'e', 'return']","[1.2863935999994283, 1.4383570000009058, 1.5742348000003403, 1.7742364000005182, 1.9504066000008606, 2.046828300000925, 2.502132800000254]",,,7,001,F,2023_Feb_09_1320,student_TT_local,2021.1.4,59.829295054717065,
,"This is Section 2.

In this section, your task will be the same as before - that is, to type the word you see on the screen AFTER the typing prompt. However, rather than just seeing the word before typing, you will also see a video of someone typing different words to what you will need to type at different speeds. 

Press 'enter/return' to go to the next page.","This is Section 4. 

In this section, your task will be the same as before - that is, to type the word you see on the screen after the typing prompt. You will see a video again, like in Section 2, only this time, the video will show someone the same word that you must type at different speeds. 

Press 'enter/return' to go to the next page.",video&audio/Example_AOMI_layout.png,1.6,0.6,afford,19.5,20.5,video&audio/amount_touch_edited.mp4,video&audio/afford_touch_edited.mp4,vanity,matrix,6.5,7.5,video&audio/sentence1_TT_3X.mp4,video&audio/hinder_TT_3X.mp4,breach,hinder,1 = AOMIgen,,,,,,,,,,,,,,,,,,,,,,,,,,,,,,,,,,,,,,,,,,,,,,,,,,,,,,,,,,,0,27,27,0,,,,,,,,,,,,,,,None,,,,,,,,,,,,,,,,,,,,,,,,,None, hinder,"['h', 'i', 'n', 'd', 'e', 'r', 'return']","[0.5728471000002173, 0.7327021999990393, 0.8776063999994221, 1.0527559999991354, 1.2052143000000797, 1.3653231000007509, 1.629422899999554]",,,7,001,F,2023_Feb_09_1320,student_TT_local,2021.1.4,59.829295054717065,
,None,None,None,None,None,None,None,None,None,None,critic,obsess,6.5,7.5,video&audio/sentence5_TT_3X.mp4,video&audio/zephyr_TT_3X.mp4,fusion,zephyr,None,,,,,,,,,,,,,,,,,,,,,,,,,,,,,,,,,,,,,,,,,,,,,,,,,,,,,,,,,,,0,28,28,10,,,,,,,,,,,,,,,None,,,,,,,,,,,,,,,,,,,,,,,,,None, zephyr,"['z', 'a', 'p', 'h', 'y', 'backspace', 'backspace', 'backspace', 'backspace', 'e', 'p', 'y', 'r', 'return']","[0.7686673000007431, 1.1207723000006808, 1.4647638000005827, 1.8565907000011066, 2.2966501000009885, 3.664760600000591, 3.8409183000003395, 4.000479000000269, 4.160831400000461, 5.0570459999999, 5.512622600001123, 6.432613400000264, 6.673000100001445, 7.66482200000064]",,,7,001,F,2023_Feb_09_1320,student_TT_local,2021.1.4,59.829295054717065,
,None,None,None,None,None,None,None,None,None,None,deduct,hippie,6.5,7.5,video&audio/sentence3_TT_3X.mp4,video&audio/hearth_TT_3X.mp4,herbal,hearth,None,,,,,,,,,,,,,,,,,,,,,,,,,,,,,,,,,,,,,,,,,,,,,,,,,,,,,,,,,,,0,29,29,14,,,,,,,,,,,,,,,None,,,,,,,,,,,,,,,,,,,,,,,,,None, hearth,"['h', 'e', 'a', 'r', 't', 'h', 'return']","[0.48573929999838583, 0.6303511999994953, 0.8304792999988422, 1.0221071999985725, 1.4628462000000582, 2.373777099999643, 2.838439899998775]",,,7,001,F,2023_Feb_09_1320,student_TT_local,2021.1.4,59.829295054717065,
,,,,,,,,,,,,,,,,,,,,typingRatingScale.png,"How would you rate your typing performance in the previous section?

Press a number on your keyboard according to the rating scale below to give your answer. Your first answer will be accepted.",,,,,,,,,,,,,,,,,,,,,,,,,,,,,,,,,,,,,,,,,,,,,,,,,,,,,,,,,,,,,0,0,0,0,,,,,,,,,,,,,,,,,,,,,,,,,,,,,,,,,,,,,,,,['4'],[9.00732810000045],7,001,F,2023_Feb_09_1320,student_TT_local,2021.1.4,59.829295054717065,
,,,,,,,,,,,,,,,,,,,,visualImageryScale.png,"While imagining yourself typing, how clear was your visual image?

Press a number on your keyboard according to the rating scale below to give your answer. Your first answer will be accepted.",,,,,,,,,,,,,,,,,,,,,,,,,,,,,,,,,,,,,,,,,,,,,,,,,,,,,,,,,,,,,0,1,1,1,,,,,,,,,,,,,,,,,,,,,,,,,,,,,,,,,,,,,,,,['4'],[8.204608800000642],7,001,F,2023_Feb_09_1320,student_TT_local,2021.1.4,59.829295054717065,
,,,,,,,,,,,,,,,,,,,,kinestheticImageryScale.png,"While imagining yourself typing, how intense were the sensations associated with the imagined movement?

Press a number on your keyboard according to the rating scale below to give your answer. Your first answer will be accepted.",,,,,,,,,,,,,,,,,,,,,,,,,,,,,,,,,,,,,,,,,,,,,,,,,,,,,,,,,,,,,0,2,2,2,,,,,,,,,,,,,,,,,,,,,,,,,,,,,,,,,,,,,,,,['4'],[14.3405903999992],7,001,F,2023_Feb_09_1320,student_TT_local,2021.1.4,59.829295054717065,
