pracWords,instr_1,instr_2,AOMI_Ima,AOMI_w,AOMI_h,practiceWords,prac_time,prac_bkgd_time,pracVid_1,pracVid_2,baseline_words,control_words,cont_time,cont_bgkd_time,first_vids,second_vids,AOMIfirst_words,AOMIsecond_words,Order,ratingScale,rateInstr,instructLoop.thisRepN,instructLoop.thisTrialN,instructLoop.thisN,instructLoop.thisIndex,practice_control.thisRepN,practice_control.thisTrialN,practice_control.thisN,practice_control.thisIndex,trials_1.thisRepN,trials_1.thisTrialN,trials_1.thisN,trials_1.thisIndex,baseRateLoop.thisRepN,baseRateLoop.thisTrialN,baseRateLoop.thisN,baseRateLoop.thisIndex,AOMIinstrLoop1.thisRepN,AOMIinstrLoop1.thisTrialN,AOMIinstrLoop1.thisN,AOMIinstrLoop1.thisIndex,AOMIpracLoop.thisRepN,AOMIpracLoop.thisTrialN,AOMIpracLoop.thisN,AOMIpracLoop.thisIndex,trials_2.thisRepN,trials_2.thisTrialN,trials_2.thisN,trials_2.thisIndex,AOMI1rateLoop.thisRepN,AOMI1rateLoop.thisTrialN,AOMI1rateLoop.thisN,AOMI1rateLoop.thisIndex,contInstrLoop.thisRepN,contInstrLoop.thisTrialN,contInstrLoop.thisN,contInstrLoop.thisIndex,contPracLoop.thisRepN,contPracLoop.thisTrialN,contPracLoop.thisN,contPracLoop.thisIndex,trials_3.thisRepN,trials_3.thisTrialN,trials_3.thisN,trials_3.thisIndex,contRateLoop.thisRepN,contRateLoop.thisTrialN,contRateLoop.thisN,contRateLoop.thisIndex,AOMIinstrLoop2.thisRepN,AOMIinstrLoop2.thisTrialN,AOMIinstrLoop2.thisN,AOMIinstrLoop2.thisIndex,AOMIpracLoop2.thisRepN,AOMIpracLoop2.thisTrialN,AOMIpracLoop2.thisN,AOMIpracLoop2.thisIndex,trials_4.thisRepN,trials_4.thisTrialN,trials_4.thisN,trials_4.thisIndex,AOMI2rateLoop.thisRepN,AOMI2rateLoop.thisTrialN,AOMI2rateLoop.thisN,AOMI2rateLoop.thisIndex,pracBkgdKeys.keys,pracKeys.keys,pracKeys.rt,pracBkgdKeys.rt,baseBkgdKeys.keys,base_typedWord,baseKeys.keys,baseKeys.rt,baseRateTypeKey.keys,baseRateTypeKey.rt,AOMI1_BkgdKeys.keys,AOMI_promptBkgdKeys.keys,AOMI1pracKeys.keys,AOMI1pracKeys.rt,AOMI1bkdgKeys.keys,AOMI1_typedWord,AOMI1keys.keys,AOMI1keys.rt,AOMI1rateTypeKey.keys,AOMI1rateTypeKey.rt,polygon_prac.started,polygon_prac.stopped,contBkgdKeys_prac.keys,contPrac_typedWord,contKeys_prac.keys,contKeys_prac.rt,polygon.started,polygon.stopped,contBkgdKeys.keys,cont_typedWord,contKeys.keys,contKeys.rt,contTypeKey.keys,contTypeKey.rt,bkgdkeys_prac2.keys,bkgdKeys4.keys,AOMI2_typedWord,keyboardCom4.keys,keyboardCom4.rt,AOMI2typeKey.keys,AOMI2typeKey.rt,participant,session,group,date,expName,psychopyVersion,frameRate,
replay,,,,,,,,,,,,,,,,,,,,,,,,,,0,0,0,1,,,,,,,,,,,,,,,,,,,,,,,,,,,,,,,,,,,,,,,,,,,,,,,,,,,,,,,,,None,"['r', 'e', 'p', 'l', 'a', 'y', 'return']","[0.8909527000505477, 1.050557899987325, 1.2826839999761432, 1.33937370008789, 1.5472972001880407, 1.6668549000751227, 2.4751071999780834]",,,,,,,,,,,,,,,,,,,,,,,,,,,,,,,,,,,,,,,9,001,F,2023_Feb_22_1243,student_TT_local,2021.1.4,48.021006343742876,
height,,,,,,,,,,,,,,,,,,,,,,,,,,0,1,1,0,,,,,,,,,,,,,,,,,,,,,,,,,,,,,,,,,,,,,,,,,,,,,,,,,,,,,,,,,"['h', 'e', 'i', 'h', 'g', 't', 'return']","['h', 'e', 'i', 'g', 'h', 't', 'return']","[1.1001697999890894, 1.2521995001006871, 1.3641534999478608, 1.532136700116098, 1.6125795999541879, 1.7241700999438763, 2.300329399993643]","[1.1743710997980088, 1.2943163998425007, 1.3903881998267025, 1.566399399889633, 1.7023306000046432, 1.8308760998770595, 1.9428549997974187]",,,,,,,,,,,,,,,,,,,,,,,,,,,,,,,,,,,,,,9,001,F,2023_Feb_22_1243,student_TT_local,2021.1.4,48.021006343742876,
update,,,,,,,,,,,,,,,,,,,,,,,,,,0,2,2,2,,,,,,,,,,,,,,,,,,,,,,,,,,,,,,,,,,,,,,,,,,,,,,,,,,,,,,,,,"['u', 'p', 'd', 'a', 't', 'e']","['u', 'p', 'd', 'a', 't', 'e', 'return']","[1.3621783999260515, 1.7858117998111993, 1.9217487999703735, 2.121894899988547, 2.233789699850604, 2.3217213000170887, 2.969921899959445]","[0.9649412999860942, 1.165080200182274, 1.3888662001118064, 1.5888435000088066, 1.708840399980545, 1.852881700033322]",,,,,,,,,,,,,,,,,,,,,,,,,,,,,,,,,,,,,,9,001,F,2023_Feb_22_1243,student_TT_local,2021.1.4,48.021006343742876,
height,,,,,,,,,,,,,,,,,,,,,,,,,,1,0,3,0,,,,,,,,,,,,,,,,,,,,,,,,,,,,,,,,,,,,,,,,,,,,,,,,,,,,,,,,,None,"['h', 'e', 'i', 'g', 'h', 't', 'return']","[0.7800549999810755, 0.9242901001125574, 1.044386100023985, 1.2279433999210596, 1.2999670999124646, 1.4040568999480456, 1.652157099917531]",,,,,,,,,,,,,,,,,,,,,,,,,,,,,,,,,,,,,,,9,001,F,2023_Feb_22_1243,student_TT_local,2021.1.4,48.021006343742876,
update,,,,,,,,,,,,,,,,,,,,,,,,,,1,1,4,2,,,,,,,,,,,,,,,,,,,,,,,,,,,,,,,,,,,,,,,,,,,,,,,,,,,,,,,,,None,"['u', 'p', 'd', 'a', 't', 'e', 'return']","[0.613209699979052, 0.8291751998476684, 1.0931665999814868, 1.28518579993397, 1.4293931999709457, 1.565164899919182, 1.9171652998775244]",,,,,,,,,,,,,,,,,,,,,,,,,,,,,,,,,,,,,,,9,001,F,2023_Feb_22_1243,student_TT_local,2021.1.4,48.021006343742876,
replay,,,,,,,,,,,,,,,,,,,,,,,,,,1,2,5,1,,,,,,,,,,,,,,,,,,,,,,,,,,,,,,,,,,,,,,,,,,,,,,,,,,,,,,,,,None,"['r', 'e', 'p', 'l', 'a', 'y', 'return']","[0.5394309000112116, 0.6592101999558508, 0.8272080000024289, 0.8835408000741154, 1.1070850999094546, 1.2031940999440849, 1.6910709000658244]",,,,,,,,,,,,,,,,,,,,,,,,,,,,,,,,,,,,,,,9,001,F,2023_Feb_22_1243,student_TT_local,2021.1.4,48.021006343742876,
,None,None,None,None,None,None,None,None,None,None,strife,tariff,6.5,7.5,video&audio/sentence2_TT_3X.mp4,video&audio/delude_TT_3X.mp4,galley,delude,None,,,,,,,,,,,0,0,0,7,,,,,,,,,,,,,,,,,,,,,,,,,,,,,,,,,,,,,,,,,,,,,,,,,,,,,,,,,None, stife,"['s', 't', 'i', 'f', 'e', 'return']","[0.6518440002109855, 0.9723122001159936, 1.1959560001268983, 1.34793970012106, 1.516099900007248, 1.668692200211808]",,,,,,,,,,,,,,,,,,,,,,,,,,,,,,,,,,9,001,F,2023_Feb_22_1243,student_TT_local,2021.1.4,48.021006343742876,
,None,None,None,None,None,None,None,None,None,None,potent,neural,6.5,7.5,video&audio/sentence2_TT_3X.mp4,video&audio/septic_TT_3X.mp4,ordain,septic,None,,,,,,,,,,,0,1,1,13,,,,,,,,,,,,,,,,,,,,,,,,,,,,,,,,,,,,,,,,,,,,,,,,,,,,,,,,,None, potent,"['p', 'o', 't', 'e', 'n', 't', 'return']","[0.68109570001252, 0.7530040999408811, 1.0172573998570442, 1.2651340998709202, 1.377178099937737, 1.5131957998964936, 1.7693533999845386]",,,,,,,,,,,,,,,,,,,,,,,,,,,,,,,,,,9,001,F,2023_Feb_22_1243,student_TT_local,2021.1.4,48.021006343742876,
,None,None,None,None,None,None,None,None,None,None,sonnet,confer,6.5,7.5,video&audio/sentence1_TT_3X.mp4,video&audio/innate_TT_3X.mp4,tamper,innate,None,,,,,,,,,,,0,2,2,12,,,,,,,,,,,,,,,,,,,,,,,,,,,,,,,,,,,,,,,,,,,,,,,,,,,,,,,,,None, sonnet,"['s', 'o', 'n', 'n', 'e', 't', 'return']","[0.7250457999762148, 0.9409914000425488, 1.1889734000433236, 1.3171889998484403, 1.3972199000418186, 1.605151099851355, 1.8212037000339478]",,,,,,,,,,,,,,,,,,,,,,,,,,,,,,,,,,9,001,F,2023_Feb_22_1243,student_TT_local,2021.1.4,48.021006343742876,
,None,None,None,None,None,None,None,None,None,None,fodder,devise,19.5,20.5,video&audio/Sentence1_touch_edited.mp4,video&audio/mangle_touch_edited.mp4,warble,mangle,None,,,,,,,,,,,0,3,3,24,,,,,,,,,,,,,,,,,,,,,,,,,,,,,,,,,,,,,,,,,,,,,,,,,,,,,,,,,None, fodder,"['f', 'o', 'd', 'd', 'e', 'r', 'return']","[0.6044914999511093, 0.7564910999499261, 0.9323663997929543, 1.0523735999595374, 1.2682788998354226, 1.3163477999623865, 1.7726586000062525]",,,,,,,,,,,,,,,,,,,,,,,,,,,,,,,,,,9,001,F,2023_Feb_22_1243,student_TT_local,2021.1.4,48.021006343742876,
,None,None,None,None,None,None,None,None,None,None,infirm,pulpit,6.5,7.5,video&audio/sentence4_TT_3X.mp4,video&audio/oblige_TT_3X.mp4,mystic,oblige,None,,,,,,,,,,,0,4,4,3,,,,,,,,,,,,,,,,,,,,,,,,,,,,,,,,,,,,,,,,,,,,,,,,,,,,,,,,,None, infirm,"['i', 'n', 'i', 'backspace', 'f', 'i', 'r', 'm', 'return']","[0.7055663000792265, 0.7612842000089586, 1.0572700998745859, 1.7613260999787599, 1.9212114999536425, 2.0494639999233186, 2.1612658998928964, 2.2652867999859154, 2.8172542999964207]",,,,,,,,,,,,,,,,,,,,,,,,,,,,,,,,,,9,001,F,2023_Feb_22_1243,student_TT_local,2021.1.4,48.021006343742876,
,None,None,None,None,None,None,None,None,None,None,deduct,hippie,6.5,7.5,video&audio/sentence3_TT_3X.mp4,video&audio/hearth_TT_3X.mp4,herbal,hearth,None,,,,,,,,,,,0,5,5,14,,,,,,,,,,,,,,,,,,,,,,,,,,,,,,,,,,,,,,,,,,,,,,,,,,,,,,,,,None, deduct,"['d', 'e', 'd', 'c', 'backspace', 'u', 'c', 't', 'return']","[0.5743466999847442, 0.7021717000752687, 1.1341386998537928, 1.3581131000537425, 1.8540508998557925, 2.158209899906069, 2.27023379993625, 2.494192000012845, 2.6061602998524904]",,,,,,,,,,,,,,,,,,,,,,,,,,,,,,,,,,9,001,F,2023_Feb_22_1243,student_TT_local,2021.1.4,48.021006343742876,
,"This is Section 2.

In this section, your task will be the same as before - that is, to type the word you see on the screen AFTER the typing prompt. However, rather than just seeing the word before typing, you will also see a video of someone typing different words to what you will need to type at different speeds. 

Press 'enter/return' to go to the next page.","This is Section 4. 

In this section, your task will be the same as before - that is, to type the word you see on the screen after the typing prompt. You will see a video again, like in Section 2, only this time, the video will show someone the same word that you must type at different speeds. 

Press 'enter/return' to go to the next page.",video&audio/Example_AOMI_layout.png,1.6,0.6,afford,19.5,20.5,video&audio/amount_touch_edited.mp4,video&audio/afford_touch_edited.mp4,vanity,matrix,6.5,7.5,video&audio/sentence1_TT_3X.mp4,video&audio/hinder_TT_3X.mp4,breach,hinder,1 = AOMIgen,,,,,,,,,,,0,6,6,0,,,,,,,,,,,,,,,,,,,,,,,,,,,,,,,,,,,,,,,,,,,,,,,,,,,,,,,,,None, vanity,"['v', 'a', 'n', 'i', 't', 'y', 'return']","[0.48273300006985664, 0.8266138001345098, 0.9626452999655157, 1.0187776000238955, 1.1627702000550926, 1.3305425001308322, 1.418529500020668]",,,,,,,,,,,,,,,,,,,,,,,,,,,,,,,,,,9,001,F,2023_Feb_22_1243,student_TT_local,2021.1.4,48.021006343742876,
,None,None,None,None,None,None,None,None,None,None,legion,subdue,19.5,20.5,video&audio/Sentence3_touch_edited.mp4,video&audio/feudal_touch_edited.mp4,matron,feudal,None,,,,,,,,,,,0,7,7,26,,,,,,,,,,,,,,,,,,,,,,,,,,,,,,,,,,,,,,,,,,,,,,,,,,,,,,,,,None, legion,"['l', 'e', 'g', 'i', 'o', 'n', 'return']","[0.6230174999218434, 0.7587882000952959, 0.9906548000872135, 1.1029209000989795, 1.4947615000419319, 1.5507662000600249, 1.9908225999679416]",,,,,,,,,,,,,,,,,,,,,,,,,,,,,,,,,,9,001,F,2023_Feb_22_1243,student_TT_local,2021.1.4,48.021006343742876,
,None,None,None,None,None,None,None,None,None,None,sherry,jackal,6.5,7.5,video&audio/sentence4_TT_3X.mp4,video&audio/hamlet_TT_3X.mp4,shroud,hamlet,None,,,,,,,,,,,0,8,8,9,,,,,,,,,,,,,,,,,,,,,,,,,,,,,,,,,,,,,,,,,,,,,,,,,,,,,,,,,None, sherry,"['s', 'h', 'e', 'r', 'r', 'y', 'return']","[0.5497586999554187, 0.66967529989779, 0.8140904000028968, 1.013850999996066, 1.1178443999961019, 1.1657179999165237, 1.4377055000513792]",,,,,,,,,,,,,,,,,,,,,,,,,,,,,,,,,,9,001,F,2023_Feb_22_1243,student_TT_local,2021.1.4,48.021006343742876,
,None,None,None,None,None,None,None,None,None,None,coerce,falter,19.5,20.5,video&audio/Sentence4_touch_edited.mp4,video&audio/tandem_touch_edited.mp4,origin,tandem,None,,,,,,,,,,,0,9,9,15,,,,,,,,,,,,,,,,,,,,,,,,,,,,,,,,,,,,,,,,,,,,,,,,,,,,,,,,,None, coerce,"['c', 'o', 'e', 'r', 'c', 'e', 'return']","[0.33062849985435605, 0.4184132998343557, 0.5861471998505294, 0.7462727997917682, 0.8109729997813702, 0.9303070998284966, 1.194354899926111]",,,,,,,,,,,,,,,,,,,,,,,,,,,,,,,,,,9,001,F,2023_Feb_22_1243,student_TT_local,2021.1.4,48.021006343742876,
,None,None,None,None,None,None,None,None,None,None,goblet,botany,19.5,20.5,video&audio/Sentence4_touch_edited.mp4,video&audio/trench_touch_edited.mp4,ethnic,trench,None,,,,,,,,,,,0,10,10,27,,,,,,,,,,,,,,,,,,,,,,,,,,,,,,,,,,,,,,,,,,,,,,,,,,,,,,,,,None, goblet,"['g', 'o', 'b', 'l', 'e', 't', 'return']","[0.48099580011330545, 0.58481360017322, 0.7369757001288235, 0.8970296001061797, 1.0010282001458108, 1.208699099952355, 1.3127770000137389]",,,,,,,,,,,,,,,,,,,,,,,,,,,,,,,,,,9,001,F,2023_Feb_22_1243,student_TT_local,2021.1.4,48.021006343742876,
,"Remember to type as QUICKLY and ACCURATELY as possible after the 'get ready' prompt.

Ask the experimenter any questions now. Please put on the headphones.

You will get one practice trial. Press 'enter/return' when you are ready to start the practice.","Remember to type as QUICKLY and ACCURATELY as you can after the 'get ready' prompt.

Ask the experimenter any questions now. Please put on the headphones.

You will get one practice trial. Press 'enter/return' when you are ready to start the practice.",video&audio/Example_AOMI_total.png,1.8,0.7,None,None,None,None,None,jargon,frugal,6.5,7.5,video&audio/sentence3_TT_3X.mp4,video&audio/oppose_TT_3X.mp4,ghetto,oppose,None,,,,,,,,,,,0,11,11,2,,,,,,,,,,,,,,,,,,,,,,,,,,,,,,,,,,,,,,,,,,,,,,,,,,,,,,,,,None, jargon,"['j', 'a', 'r', 'g', 'o', 'n', 'return']","[0.44426209991797805, 0.5562305001076311, 0.7641390999779105, 0.9161690000910312, 0.9960700001101941, 1.0763479999732226, 1.364124899962917]",,,,,,,,,,,,,,,,,,,,,,,,,,,,,,,,,,9,001,F,2023_Feb_22_1243,student_TT_local,2021.1.4,48.021006343742876,
,None,None,None,None,None,None,None,None,None,None,brazen,piston,19.5,20.5,video&audio/Sentence3_touch_edited.mp4,video&audio/caviar_touch_edited.mp4,shrill,caviar,None,,,,,,,,,,,0,12,12,20,,,,,,,,,,,,,,,,,,,,,,,,,,,,,,,,,,,,,,,,,,,,,,,,,,,,,,,,,None, brazen,"['b', 'r', 'a', 'z', 'e', 'n', 'return']","[0.5035090998280793, 0.6315121999941766, 0.9274758000392467, 1.1275625999551266, 1.3674841998144984, 1.4714826999697834, 2.0955391998868436]",,,,,,,,,,,,,,,,,,,,,,,,,,,,,,,,,,9,001,F,2023_Feb_22_1243,student_TT_local,2021.1.4,48.021006343742876,
,None,None,None,None,None,None,None,None,None,None,novice,parcel,6.5,7.5,video&audio/sentence5_TT_3X.mp4,video&audio/primal_TT_3X.mp4,entail,primal,None,,,,,,,,,,,0,13,13,4,,,,,,,,,,,,,,,,,,,,,,,,,,,,,,,,,,,,,,,,,,,,,,,,,,,,,,,,,None, novice,"['n', 'o', 'v', 'i', 'c', 'e', 'return']","[0.4646263001486659, 0.5446185001637787, 0.7689886000007391, 0.8566215999890119, 1.0410333001054823, 1.2246912000700831, 1.3928873999975622]",,,,,,,,,,,,,,,,,,,,,,,,,,,,,,,,,,9,001,F,2023_Feb_22_1243,student_TT_local,2021.1.4,48.021006343742876,
,None,None,None,None,None,None,None,None,None,None,quarry,covert,6.5,7.5,video&audio/sentence6_TT_3X.mp4,video&audio/patent_TT_3X.mp4,defame,patent,None,,,,,,,,,,,0,14,14,11,,,,,,,,,,,,,,,,,,,,,,,,,,,,,,,,,,,,,,,,,,,,,,,,,,,,,,,,,None, quarry,"['q', 'u', 'a', 'r', 'r', 'y', 'return']","[0.39298890018835664, 0.5612459999974817, 1.3130389000289142, 1.769169800216332, 1.9291167000774294, 2.001258300151676, 2.5451343001332134]",,,,,,,,,,,,,,,,,,,,,,,,,,,,,,,,,,9,001,F,2023_Feb_22_1243,student_TT_local,2021.1.4,48.021006343742876,
,None,None,None,None,None,None,None,None,None,None,satire,cortex,19.5,20.5,video&audio/Sentence4_touch_edited.mp4,video&audio/induce_touch_edited.mp4,mussel,induce,None,,,,,,,,,,,0,15,15,21,,,,,,,,,,,,,,,,,,,,,,,,,,,,,,,,,,,,,,,,,,,,,,,,,,,,,,,,,None, satire,"['s', 'a', 't', 'i', 'r', 'e', 'return']","[0.6633717000950128, 0.7594670001417398, 1.063372400123626, 1.1834424000699073, 1.327460699947551, 1.4475376999471337, 1.9434728000778705]",,,,,,,,,,,,,,,,,,,,,,,,,,,,,,,,,,9,001,F,2023_Feb_22_1243,student_TT_local,2021.1.4,48.021006343742876,
,None,None,None,None,None,None,None,None,None,None,savant,cervix,19.5,20.5,video&audio/Sentence2_touch_edited.mp4,video&audio/cobble_touch_edited.mp4,export,cobble,None,,,,,,,,,,,0,16,16,19,,,,,,,,,,,,,,,,,,,,,,,,,,,,,,,,,,,,,,,,,,,,,,,,,,,,,,,,,None, savant,"['s', 'a', 'v', 'a', 'n', 't', 'return']","[0.4726069001480937, 0.5846406000200659, 0.9203892000950873, 1.040759100113064, 1.1603878000751138, 1.2964924001134932, 1.456826200010255]",,,,,,,,,,,,,,,,,,,,,,,,,,,,,,,,,,9,001,F,2023_Feb_22_1243,student_TT_local,2021.1.4,48.021006343742876,
,None,None,None,None,None,None,None,None,None,None,pursue,debtor,19.5,20.5,video&audio/Sentence1_touch_edited.mp4,video&audio/output_touch_edited.mp4,uphold,output,None,,,,,,,,,,,0,17,17,18,,,,,,,,,,,,,,,,,,,,,,,,,,,,,,,,,,,,,,,,,,,,,,,,,,,,,,,,,None, pursue,"['p', 'u', 'r', 's', 'u', 'e', 'return']","[0.3942795000039041, 0.6501996000297368, 0.7940740000922233, 1.0741985000204295, 1.2824109999928623, 1.3781098001636565, 1.9545628000050783]",,,,,,,,,,,,,,,,,,,,,,,,,,,,,,,,,,9,001,F,2023_Feb_22_1243,student_TT_local,2021.1.4,48.021006343742876,
,None,None,None,None,None,None,None,None,None,None,mirage,malady,6.5,7.5,video&audio/sentence1_TT_3X.mp4,video&audio/shrewd_TT_3X.mp4,revoke,shrewd,None,,,,,,,,,,,0,18,18,6,,,,,,,,,,,,,,,,,,,,,,,,,,,,,,,,,,,,,,,,,,,,,,,,,,,,,,,,,None, mirage,"['m', 'i', 'r', 'a', 'g', 'e', 'return']","[0.5321482999715954, 0.5881641001906246, 0.8043288001790643, 1.0123690001200885, 1.0761953999754041, 1.212123000063002, 1.5321200999896973]",,,,,,,,,,,,,,,,,,,,,,,,,,,,,,,,,,9,001,F,2023_Feb_22_1243,student_TT_local,2021.1.4,48.021006343742876,
,None,None,None,None,None,None,None,None,None,None,upkeep,kipper,19.5,20.5,video&audio/Sentence2_touch_edited.mp4,video&audio/meddle_touch_edited.mp4,divert,meddle,None,,,,,,,,,,,0,19,19,25,,,,,,,,,,,,,,,,,,,,,,,,,,,,,,,,,,,,,,,,,,,,,,,,,,,,,,,,,None, upkeep,"['u', 'p', 'k', 'e', 'e', 'p', 'return']","[0.5119618999306113, 0.8158862998243421, 0.960442999843508, 1.1277728998102248, 1.2724202999379486, 1.3037527999840677, 1.8076981999911368]",,,,,,,,,,,,,,,,,,,,,,,,,,,,,,,,,,9,001,F,2023_Feb_22_1243,student_TT_local,2021.1.4,48.021006343742876,
,None,None,None,None,None,None,None,None,None,None,convoy,plasma,19.5,20.5,video&audio/Sentence5_touch_edited.mp4,video&audio/jailer_touch_edited.mp4,nettle,jailer,None,,,,,,,,,,,0,20,20,16,,,,,,,,,,,,,,,,,,,,,,,,,,,,,,,,,,,,,,,,,,,,,,,,,,,,,,,,,None, convoy,"['c', 'o', 'n', 'b', 'o', 'y', 'backspace', 'backspace', 'backspace', 'v', 'o', 'y', 'return']","[1.562223399989307, 1.6818579998798668, 1.7539113000966609, 1.8978647000622004, 2.0101938999723643, 2.1058505000546575, 2.778195400023833, 2.8978363999631256, 3.0098860999569297, 3.481813699938357, 3.5858434999827296, 3.673931800061837, 4.209779999917373]",,,,,,,,,,,,,,,,,,,,,,,,,,,,,,,,,,9,001,F,2023_Feb_22_1243,student_TT_local,2021.1.4,48.021006343742876,
,None,None,None,None,None,None,None,None,None,None,impose,belfry,19.5,20.5,video&audio/Sentence6_touch_edited.mp4,video&audio/girdle_touch_edited.mp4,linear,girdle,None,,,,,,,,,,,0,21,21,23,,,,,,,,,,,,,,,,,,,,,,,,,,,,,,,,,,,,,,,,,,,,,,,,,,,,,,,,,None, impose,"['i', 'm', 'p', 'o', 's', 'e', 'return']","[0.5324611999094486, 0.7164845999795943, 0.8766276000533253, 0.9403623999096453, 1.0363910000305623, 1.2444688000250608, 1.380525799933821]",,,,,,,,,,,,,,,,,,,,,,,,,,,,,,,,,,9,001,F,2023_Feb_22_1243,student_TT_local,2021.1.4,48.021006343742876,
,None,None,None,None,None,None,None,None,None,None,murmur,ritual,19.5,20.5,video&audio/Sentence6_touch_edited.mp4,video&audio/clergy_touch_edited.mp4,portal,clergy,None,,,,,,,,,,,0,22,22,17,,,,,,,,,,,,,,,,,,,,,,,,,,,,,,,,,,,,,,,,,,,,,,,,,,,,,,,,,None, murmur,"['m', 'u', 'r', 'm', 'u', 'r', 'return']","[0.4630438999738544, 0.791284800041467, 1.0870841001160443, 1.1595769000705332, 1.3349766000173986, 1.4235330000519753, 2.0550987999886274]",,,,,,,,,,,,,,,,,,,,,,,,,,,,,,,,,,9,001,F,2023_Feb_22_1243,student_TT_local,2021.1.4,48.021006343742876,
,None,None,None,None,None,None,None,None,None,None,parole,solemn,6.5,7.5,video&audio/sentence3_TT_3X.mp4,video&audio/befall_TT_3X.mp4,ration,befall,None,,,,,,,,,,,0,23,23,8,,,,,,,,,,,,,,,,,,,,,,,,,,,,,,,,,,,,,,,,,,,,,,,,,,,,,,,,,None, parole,"['p', 'a', 'r', 'o', 'l', 'e', 'return']","[0.026840500067919493, 0.13909989991225302, 0.34712719987146556, 0.4349112999625504, 0.6110084999818355, 0.6908849000465125, 1.2111380000133067]",,,,,,,,,,,,,,,,,,,,,,,,,,,,,,,,,,9,001,F,2023_Feb_22_1243,student_TT_local,2021.1.4,48.021006343742876,
,None,None,None,None,None,None,None,None,None,None,musket,subtle,19.5,20.5,video&audio/Sentence5_touch_edited.mp4,video&audio/fungal_touch_edited.mp4,mucous,fungal,None,,,,,,,,,,,0,24,24,22,,,,,,,,,,,,,,,,,,,,,,,,,,,,,,,,,,,,,,,,,,,,,,,,,,,,,,,,,None, musket,"['m', 'u', 's', 'k', 'e', 't', 'return']","[0.512352199992165, 0.7045889999717474, 0.8164037999231368, 0.9123843000270426, 1.032399999909103, 1.1444021000061184, 1.4887099000625312]",,,,,,,,,,,,,,,,,,,,,,,,,,,,,,,,,,9,001,F,2023_Feb_22_1243,student_TT_local,2021.1.4,48.021006343742876,
,None,None,None,None,None,None,None,None,None,None,manure,picket,19.5,20.5,video&audio/Sentence5_touch_edited.mp4,video&audio/parish_touch_edited.mp4,gullet,parish,None,,,,,,,,,,,0,25,25,28,,,,,,,,,,,,,,,,,,,,,,,,,,,,,,,,,,,,,,,,,,,,,,,,,,,,,,,,,None, manure,"['m', 'a', 'n', 'u', 'r', 'e', 'return']","[0.4360350000206381, 0.5561275999061763, 0.6360948998481035, 0.7799308998510242, 0.9000411999877542, 1.0200618000235409, 1.4040245998185128]",,,,,,,,,,,,,,,,,,,,,,,,,,,,,,,,,,9,001,F,2023_Feb_22_1243,student_TT_local,2021.1.4,48.021006343742876,
,"While you watch the video, imagine yourself typing the word on the screen, like how you did in the imagery practice. While you watch the video and imagine this, rest your hands on your keyboard but DO NOT type until AFTER you see the typing prompt.

Press 'enter/return' to go to the next page.","While watching the video, imagine yourself typing the word on the screen, like how you did in the imagery practice. While you watch the video and imagine this, rest your hands on your keyboard but DO NOT type until AFTER you see the typing prompt.

Press 'enter/return' to go to the next page.",video&audio/Example_AOMI_imagine.png,1.6,1,butter,6.5,7.5,video&audio/amount_TT_3X.mp4,video&audio/butter_TT_3X.mp4,plight,ascend,6.5,7.5,video&audio/sentence2_TT_3X.mp4,video&audio/metric_TT_3X.mp4,eatery,metric,2 = AOMIspec,,,,,,,,,,,0,26,26,1,,,,,,,,,,,,,,,,,,,,,,,,,,,,,,,,,,,,,,,,,,,,,,,,,,,,,,,,,None, plight,"['p', 'l', 'i', 'g', 'h', 't', 'return']","[0.2826489000581205, 0.34655550005845726, 0.690576400142163, 1.0986363000702113, 1.2025119001045823, 1.2991508000995964, 1.6825936001259834]",,,,,,,,,,,,,,,,,,,,,,,,,,,,,,,,,,9,001,F,2023_Feb_22_1243,student_TT_local,2021.1.4,48.021006343742876,
,None,None,None,None,None,None,None,None,None,None,revolt,virile,6.5,7.5,video&audio/sentence6_TT_3X.mp4,video&audio/joiner_TT_3X.mp4,apathy,joiner,None,,,,,,,,,,,0,27,27,5,,,,,,,,,,,,,,,,,,,,,,,,,,,,,,,,,,,,,,,,,,,,,,,,,,,,,,,,,None, revolt,"['r', 'e', 'v', 'o', 'l', 't']","[0.38649730011820793, 0.45844050007872283, 0.7385834001470357, 0.8185886000283062, 0.9945964999496937, 1.0824641999788582]",,,,,,,,,,,,,,,,,,,,,,,,,,,,,,,,,,9,001,F,2023_Feb_22_1243,student_TT_local,2021.1.4,48.021006343742876,
,None,None,None,None,None,None,None,None,None,None,critic,obsess,6.5,7.5,video&audio/sentence5_TT_3X.mp4,video&audio/zephyr_TT_3X.mp4,fusion,zephyr,None,,,,,,,,,,,0,28,28,10,,,,,,,,,,,,,,,,,,,,,,,,,,,,,,,,,,,,,,,,,,,,,,,,,,,,,,,,,None, critic,"['c', 'r', 'i', 't', 'i', 'c', 'return']","[0.4250302000436932, 0.6009364000055939, 0.7445483999326825, 0.8485441999509931, 0.9129216000437737, 1.0726894999388605, 1.2325047999620438]",,,,,,,,,,,,,,,,,,,,,,,,,,,,,,,,,,9,001,F,2023_Feb_22_1243,student_TT_local,2021.1.4,48.021006343742876,
,None,None,None,None,None,None,None,None,None,None,binder,forage,19.5,20.5,video&audio/Sentence6_touch_edited.mp4,video&audio/campus_touch_edited.mp4,allure,campus,None,,,,,,,,,,,0,29,29,29,,,,,,,,,,,,,,,,,,,,,,,,,,,,,,,,,,,,,,,,,,,,,,,,,,,,,,,,,None, binder,"['b', 'i', 'n', 'd', 'e', 'r', 'return']","[0.5830536999274045, 0.6632173999678344, 0.8228446999564767, 0.9827610999345779, 1.1433025000151247, 1.2711677998304367, 1.3830601999070495]",,,,,,,,,,,,,,,,,,,,,,,,,,,,,,,,,,9,001,F,2023_Feb_22_1243,student_TT_local,2021.1.4,48.021006343742876,
,,,,,,,,,,,,,,,,,,,,typingRatingScale.png,"How would you rate your typing performance in the previous section?

Press a number on your keyboard according to the rating scale below to give your answer. Your first answer will be accepted.",,,,,,,,,,,,,0,0,0,0,,,,,,,,,,,,,,,,,,,,,,,,,,,,,,,,,,,,,,,,,,,,,,,,,,,,,,,,,['4'],[14.246190599864349],,,,,,,,,,,,,,,,,,,,,,,,,,,,,,,,9,001,F,2023_Feb_22_1243,student_TT_local,2021.1.4,48.021006343742876,
,,,,,,,,,,,,,,,,,,,,imageryCheckScale.png,"In the previous section did you imagine yourself typing?

Press a number on your keyboard according to the rating scale below to give your answer. Your first answer will be accepted.",,,,,,,,,,,,,0,1,1,1,,,,,,,,,,,,,,,,,,,,,,,,,,,,,,,,,,,,,,,,,,,,,,,,,,,,,,,,,['1'],[13.28146870015189],,,,,,,,,,,,,,,,,,,,,,,,,,,,,,,,9,001,F,2023_Feb_22_1243,student_TT_local,2021.1.4,48.021006343742876,
,"While you watch the video, imagine yourself typing the word on the screen, like how you did in the imagery practice. While you watch the video and imagine this, rest your hands on your keyboard but DO NOT type until AFTER you see the typing prompt.

Press 'enter/return' to go to the next page.","While watching the video, imagine yourself typing the word on the screen, like how you did in the imagery practice. While you watch the video and imagine this, rest your hands on your keyboard but DO NOT type until AFTER you see the typing prompt.

Press 'enter/return' to go to the next page.",video&audio/Example_AOMI_imagine.png,1.6,1,butter,6.5,7.5,video&audio/amount_TT_3X.mp4,video&audio/butter_TT_3X.mp4,plight,ascend,6.5,7.5,video&audio/sentence2_TT_3X.mp4,video&audio/metric_TT_3X.mp4,eatery,metric,2 = AOMIspec,,,,,,,,,,,,,,,,,,,,,,,,,,,0,0,0,1,,,,,,,,,,,,,,,,,,,,,,,,,,,,,,,,,,,,,,,,,,,,,,,None,None,"['b', 'u', 't', 't', 'e', 'r', 'return']","[0.6154332000296563, 0.7278986999299377, 0.9994958001188934, 1.143736300058663, 1.2635348001495004, 1.391525800107047, 1.6154773000162095]",None, eatery,"['e', 'a', 't', 'e', 'r', 'y', 'return']","[1.112866299925372, 1.3047401998192072, 1.5845247998367995, 1.76892269984819, 1.872912999941036, 1.9688446999061853, 2.400650199968368]",,,,,,,,,,,,,,,,,,,,,,,,9,001,F,2023_Feb_22_1243,student_TT_local,2021.1.4,48.021006343742876,
,None,None,None,None,None,None,None,None,None,None,manure,picket,19.5,20.5,video&audio/Sentence5_touch_edited.mp4,video&audio/parish_touch_edited.mp4,gullet,parish,None,,,,,,,,,,,,,,,,,,,,,,,,,,,0,1,1,28,,,,,,,,,,,,,,,,,,,,,,,,,,,,,,,,,,,,,,,,,,,,,,,,None,,,None, gullet,"['g', 'u', 'l', 'l', 'e', 't', 'return']","[0.6395248998887837, 0.735954700037837, 1.0314087998121977, 1.1516217000316828, 1.2481599999591708, 1.4636050998233259, 1.6715155998244882]",,,,,,,,,,,,,,,,,,,,,,,,9,001,F,2023_Feb_22_1243,student_TT_local,2021.1.4,48.021006343742876,
,None,None,None,None,None,None,None,None,None,None,fodder,devise,19.5,20.5,video&audio/Sentence1_touch_edited.mp4,video&audio/mangle_touch_edited.mp4,warble,mangle,None,,,,,,,,,,,,,,,,,,,,,,,,,,,0,2,2,24,,,,,,,,,,,,,,,,,,,,,,,,,,,,,,,,,,,,,,,,,,,,,,,,None,,,None, warble,"['w', 'a', 'r', 'b', 'l', 'w', 'backspace', 'e', 'return']","[0.6721403000410646, 0.8881071000359952, 1.104118200019002, 1.2403516001068056, 1.5040692000184208, 1.648103800136596, 2.2006426001898944, 2.7923729000613093, 2.9121436001732945]",,,,,,,,,,,,,,,,,,,,,,,,9,001,F,2023_Feb_22_1243,student_TT_local,2021.1.4,48.021006343742876,
,None,None,None,None,None,None,None,None,None,None,critic,obsess,6.5,7.5,video&audio/sentence5_TT_3X.mp4,video&audio/zephyr_TT_3X.mp4,fusion,zephyr,None,,,,,,,,,,,,,,,,,,,,,,,,,,,0,3,3,10,,,,,,,,,,,,,,,,,,,,,,,,,,,,,,,,,,,,,,,,,,,,,,,,None,,,None, fusion,"['f', 'u', 's', 'i', 'o', 'n', 'return']","[0.6542789000086486, 0.8623615000396967, 1.2862252001650631, 1.3902740001212806, 1.5663494002074003, 1.6303163000848144, 2.086296700173989]",,,,,,,,,,,,,,,,,,,,,,,,9,001,F,2023_Feb_22_1243,student_TT_local,2021.1.4,48.021006343742876,
,"This is Section 2.

In this section, your task will be the same as before - that is, to type the word you see on the screen AFTER the typing prompt. However, rather than just seeing the word before typing, you will also see a video of someone typing different words to what you will need to type at different speeds. 

Press 'enter/return' to go to the next page.","This is Section 4. 

In this section, your task will be the same as before - that is, to type the word you see on the screen after the typing prompt. You will see a video again, like in Section 2, only this time, the video will show someone the same word that you must type at different speeds. 

Press 'enter/return' to go to the next page.",video&audio/Example_AOMI_layout.png,1.6,0.6,afford,19.5,20.5,video&audio/amount_touch_edited.mp4,video&audio/afford_touch_edited.mp4,vanity,matrix,6.5,7.5,video&audio/sentence1_TT_3X.mp4,video&audio/hinder_TT_3X.mp4,breach,hinder,1 = AOMIgen,,,,,,,,,,,,,,,,,,,,,,,,,,,0,4,4,0,,,,,,,,,,,,,,,,,,,,,,,,,,,,,,,,,,,,,,,,,,,,,,,,None,,,None, breach,"['b', 'r', 'e', 'a', 'c', 'h', 'return']","[0.6519724000245333, 0.8522924000862986, 1.0039673000574112, 1.5722114001400769, 1.8525028999429196, 1.892018600134179, 2.412141799926758]",,,,,,,,,,,,,,,,,,,,,,,,9,001,F,2023_Feb_22_1243,student_TT_local,2021.1.4,48.021006343742876,
,"Remember to type as QUICKLY and ACCURATELY as possible after the 'get ready' prompt.

Ask the experimenter any questions now. Please put on the headphones.

You will get one practice trial. Press 'enter/return' when you are ready to start the practice.","Remember to type as QUICKLY and ACCURATELY as you can after the 'get ready' prompt.

Ask the experimenter any questions now. Please put on the headphones.

You will get one practice trial. Press 'enter/return' when you are ready to start the practice.",video&audio/Example_AOMI_total.png,1.8,0.7,None,None,None,None,None,jargon,frugal,6.5,7.5,video&audio/sentence3_TT_3X.mp4,video&audio/oppose_TT_3X.mp4,ghetto,oppose,None,,,,,,,,,,,,,,,,,,,,,,,,,,,0,5,5,2,,,,,,,,,,,,,,,,,,,,,,,,,,,,,,,,,,,,,,,,,,,,,,,,None,,,None, ghetto,"['g', 'h', 'e', 't', 't', 'o', 'return']","[0.7105600999202579, 0.7828504999633878, 1.0546913999132812, 1.2867801999673247, 1.4306603998411447, 1.4946732998359948, 1.7746876999735832]",,,,,,,,,,,,,,,,,,,,,,,,9,001,F,2023_Feb_22_1243,student_TT_local,2021.1.4,48.021006343742876,
,None,None,None,None,None,None,None,None,None,None,impose,belfry,19.5,20.5,video&audio/Sentence6_touch_edited.mp4,video&audio/girdle_touch_edited.mp4,linear,girdle,None,,,,,,,,,,,,,,,,,,,,,,,,,,,0,6,6,23,,,,,,,,,,,,,,,,,,,,,,,,,,,,,,,,,,,,,,,,,,,,,,,,None,,,None, linear,"['l', 'i', 'n', 'e', 'a', 'r', 'return']","[0.686209199950099, 0.9185580001212656, 1.046286900062114, 1.4622452000621706, 1.686247100122273, 1.8066273999866098, 2.270312200067565]",,,,,,,,,,,,,,,,,,,,,,,,9,001,F,2023_Feb_22_1243,student_TT_local,2021.1.4,48.021006343742876,
,None,None,None,None,None,None,None,None,None,None,deduct,hippie,6.5,7.5,video&audio/sentence3_TT_3X.mp4,video&audio/hearth_TT_3X.mp4,herbal,hearth,None,,,,,,,,,,,,,,,,,,,,,,,,,,,0,7,7,14,,,,,,,,,,,,,,,,,,,,,,,,,,,,,,,,,,,,,,,,,,,,,,,,None,,,None, herbal,"['h', 'e', 'r', 'b', 'a', 'l', 'return']","[0.6923313001170754, 0.8844785001128912, 1.0043514999561012, 1.2444305999670178, 1.445027300156653, 1.6046068000141531, 2.1083939000964165]",,,,,,,,,,,,,,,,,,,,,,,,9,001,F,2023_Feb_22_1243,student_TT_local,2021.1.4,48.021006343742876,
,None,None,None,None,None,None,None,None,None,None,upkeep,kipper,19.5,20.5,video&audio/Sentence2_touch_edited.mp4,video&audio/meddle_touch_edited.mp4,divert,meddle,None,,,,,,,,,,,,,,,,,,,,,,,,,,,0,8,8,25,,,,,,,,,,,,,,,,,,,,,,,,,,,,,,,,,,,,,,,,,,,,,,,,None,,,None, divert,"['d', 'i', 'v', 'e', 'r', 't', 'return']","[0.6344498000107706, 0.8585294999647886, 1.0660550000611693, 1.266154499957338, 1.5943487000185996, 2.2349052999634296, 2.666360800154507]",,,,,,,,,,,,,,,,,,,,,,,,9,001,F,2023_Feb_22_1243,student_TT_local,2021.1.4,48.021006343742876,
,None,None,None,None,None,None,None,None,None,None,sherry,jackal,6.5,7.5,video&audio/sentence4_TT_3X.mp4,video&audio/hamlet_TT_3X.mp4,shroud,hamlet,None,,,,,,,,,,,,,,,,,,,,,,,,,,,0,9,9,9,,,,,,,,,,,,,,,,,,,,,,,,,,,,,,,,,,,,,,,,,,,,,,,,None,,,None, shroud,"['s', 'h', 'r', 'o', 'u', 'd', 'return']","[0.5379624001216143, 0.6418900999706239, 0.8102176000829786, 0.9298457999248058, 0.993817700073123, 1.1138683001045138, 1.713824399979785]",,,,,,,,,,,,,,,,,,,,,,,,9,001,F,2023_Feb_22_1243,student_TT_local,2021.1.4,48.021006343742876,
,None,None,None,None,None,None,None,None,None,None,convoy,plasma,19.5,20.5,video&audio/Sentence5_touch_edited.mp4,video&audio/jailer_touch_edited.mp4,nettle,jailer,None,,,,,,,,,,,,,,,,,,,,,,,,,,,0,10,10,16,,,,,,,,,,,,,,,,,,,,,,,,,,,,,,,,,,,,,,,,,,,,,,,,None,,,None, nettle,"['n', 'e', 't', 't', 'l', 'e', 'return']","[0.6899067999329418, 0.7859964000526816, 1.0099307000637054, 1.1539272998925298, 1.290155699942261, 1.3942875999491662, 1.562132699880749]",,,,,,,,,,,,,,,,,,,,,,,,9,001,F,2023_Feb_22_1243,student_TT_local,2021.1.4,48.021006343742876,
,None,None,None,None,None,None,None,None,None,None,revolt,virile,6.5,7.5,video&audio/sentence6_TT_3X.mp4,video&audio/joiner_TT_3X.mp4,apathy,joiner,None,,,,,,,,,,,,,,,,,,,,,,,,,,,0,11,11,5,,,,,,,,,,,,,,,,,,,,,,,,,,,,,,,,,,,,,,,,,,,,,,,,None,,,None, apathy,"['a', 'p', 'a', 't', 'h', 'y', 'return']","[0.7374846998136491, 0.841402699938044, 0.8892719999421388, 1.1372559999581426, 1.2252383998129517, 1.353306899778545, 1.5132103997748345]",,,,,,,,,,,,,,,,,,,,,,,,9,001,F,2023_Feb_22_1243,student_TT_local,2021.1.4,48.021006343742876,
,None,None,None,None,None,None,None,None,None,None,quarry,covert,6.5,7.5,video&audio/sentence6_TT_3X.mp4,video&audio/patent_TT_3X.mp4,defame,patent,None,,,,,,,,,,,,,,,,,,,,,,,,,,,0,12,12,11,,,,,,,,,,,,,,,,,,,,,,,,,,,,,,,,,,,,,,,,,,,,,,,,None,,,None, defame,"['d', 'e', 'f', 'a', 'm', 'e', 'return']","[0.6016907000448555, 0.7056700999382883, 0.8735503999050707, 1.0817684000357985, 1.2176280000712723, 1.3216909999027848, 1.5133593999780715]",,,,,,,,,,,,,,,,,,,,,,,,9,001,F,2023_Feb_22_1243,student_TT_local,2021.1.4,48.021006343742876,
,None,None,None,None,None,None,None,None,None,None,parole,solemn,6.5,7.5,video&audio/sentence3_TT_3X.mp4,video&audio/befall_TT_3X.mp4,ration,befall,None,,,,,,,,,,,,,,,,,,,,,,,,,,,0,13,13,8,,,,,,,,,,,,,,,,,,,,,,,,,,,,,,,,,,,,,,,,,,,,,,,,None,,,None, ration,"['r', 'a', 't', 'i', 'o', 'n', 'return']","[0.6538333999924362, 1.0301176998764277, 1.293858899967745, 1.3578562999609858, 1.5905653999652714, 1.6298450999893248, 2.1260197998490185]",,,,,,,,,,,,,,,,,,,,,,,,9,001,F,2023_Feb_22_1243,student_TT_local,2021.1.4,48.021006343742876,
,None,None,None,None,None,None,None,None,None,None,infirm,pulpit,6.5,7.5,video&audio/sentence4_TT_3X.mp4,video&audio/oblige_TT_3X.mp4,mystic,oblige,None,,,,,,,,,,,,,,,,,,,,,,,,,,,0,14,14,3,,,,,,,,,,,,,,,,,,,,,,,,,,,,,,,,,,,,,,,,,,,,,,,,None,,,None, mystic,"['m', 'y', 's', 't', 'i', 'c', 'return']","[0.6161704999394715, 0.8724501999095082, 1.0000495999120176, 1.2321339999325573, 1.320116400020197, 1.4800475998781621, 1.6407599998638034]",,,,,,,,,,,,,,,,,,,,,,,,9,001,F,2023_Feb_22_1243,student_TT_local,2021.1.4,48.021006343742876,
,None,None,None,None,None,None,None,None,None,None,strife,tariff,6.5,7.5,video&audio/sentence2_TT_3X.mp4,video&audio/delude_TT_3X.mp4,galley,delude,None,,,,,,,,,,,,,,,,,,,,,,,,,,,0,15,15,7,,,,,,,,,,,,,,,,,,,,,,,,,,,,,,,,,,,,,,,,,,,,,,,,None,,,None, galley,"['g', 'a', 'l', 'e', 'y', 'backspace', 'backspace', 'l', 'e', 'y', 'return']","[0.46572330011986196, 1.1774493001867086, 1.3132665001321584, 1.5611857001204044, 1.6891462001949549, 2.3372633000835776, 2.449633500073105, 2.689208400202915, 2.793248600093648, 2.9772927002049983, 3.0894575000274926]",,,,,,,,,,,,,,,,,,,,,,,,9,001,F,2023_Feb_22_1243,student_TT_local,2021.1.4,48.021006343742876,
,None,None,None,None,None,None,None,None,None,None,murmur,ritual,19.5,20.5,video&audio/Sentence6_touch_edited.mp4,video&audio/clergy_touch_edited.mp4,portal,clergy,None,,,,,,,,,,,,,,,,,,,,,,,,,,,0,16,16,17,,,,,,,,,,,,,,,,,,,,,,,,,,,,,,,,,,,,,,,,,,,,,,,,None,,,None, portal,"['p', 'o', 'r', 't', 'a', 'a', 'backspace', 'l', 'return']","[0.6697148000821471, 0.7337287000846118, 0.9579682999756187, 1.0381377001758665, 1.4058360999915749, 1.6698580000083894, 2.3337966999970376, 2.605720200110227, 2.9498241001274437]",,,,,,,,,,,,,,,,,,,,,,,,9,001,F,2023_Feb_22_1243,student_TT_local,2021.1.4,48.021006343742876,
,None,None,None,None,None,None,None,None,None,None,satire,cortex,19.5,20.5,video&audio/Sentence4_touch_edited.mp4,video&audio/induce_touch_edited.mp4,mussel,induce,None,,,,,,,,,,,,,,,,,,,,,,,,,,,0,17,17,21,,,,,,,,,,,,,,,,,,,,,,,,,,,,,,,,,,,,,,,,,,,,,,,,None,,,None, mussel,"['comma', 'backspace', 'm', 'u', 's', 's', 'e', 'l', 'return']","[0.6004516000393778, 1.0402999999932945, 1.2644688000436872, 1.4561809999868274, 1.5766644000541419, 1.7211527000181377, 1.8882098998874426, 1.9605262000113726, 2.376452799886465]",,,,,,,,,,,,,,,,,,,,,,,,9,001,F,2023_Feb_22_1243,student_TT_local,2021.1.4,48.021006343742876,
,None,None,None,None,None,None,None,None,None,None,musket,subtle,19.5,20.5,video&audio/Sentence5_touch_edited.mp4,video&audio/fungal_touch_edited.mp4,mucous,fungal,None,,,,,,,,,,,,,,,,,,,,,,,,,,,0,18,18,22,,,,,,,,,,,,,,,,,,,,,,,,,,,,,,,,,,,,,,,,,,,,,,,,None,,,None, mucous,"['m', 'u', 'c', 'o', 'u', 's', 'return']","[0.7883588999975473, 1.0120702998246998, 1.3481087000109255, 1.4839378998149186, 1.572278699837625, 1.6279647999908775, 2.1719567999243736]",,,,,,,,,,,,,,,,,,,,,,,,9,001,F,2023_Feb_22_1243,student_TT_local,2021.1.4,48.021006343742876,
,None,None,None,None,None,None,None,None,None,None,goblet,botany,19.5,20.5,video&audio/Sentence4_touch_edited.mp4,video&audio/trench_touch_edited.mp4,ethnic,trench,None,,,,,,,,,,,,,,,,,,,,,,,,,,,0,19,19,27,,,,,,,,,,,,,,,,,,,,,,,,,,,,,,,,,,,,,,,,,,,,,,,,None,,,None, ethnic,"['e', 't', 'h', 'n', 'i', 'c', 'return']","[0.5022909000981599, 0.7103124998975545, 0.8143674999009818, 0.9902655000332743, 1.0622304000426084, 1.1984932001214474, 1.454294400056824]",,,,,,,,,,,,,,,,,,,,,,,,9,001,F,2023_Feb_22_1243,student_TT_local,2021.1.4,48.021006343742876,
,None,None,None,None,None,None,None,None,None,None,legion,subdue,19.5,20.5,video&audio/Sentence3_touch_edited.mp4,video&audio/feudal_touch_edited.mp4,matron,feudal,None,,,,,,,,,,,,,,,,,,,,,,,,,,,0,20,20,26,,,,,,,,,,,,,,,,,,,,,,,,,,,,,,,,,,,,,,,,,,,,,,,,None,,,None, matron,"['m', 'a', 't', 'r', 'o', 'n', 'return']","[0.7580846999771893, 0.8943100001197308, 1.1579136000946164, 1.3257449001539499, 1.4299669000320137, 1.509894800139591, 1.7740074000321329]",,,,,,,,,,,,,,,,,,,,,,,,9,001,F,2023_Feb_22_1243,student_TT_local,2021.1.4,48.021006343742876,
,None,None,None,None,None,None,None,None,None,None,pursue,debtor,19.5,20.5,video&audio/Sentence1_touch_edited.mp4,video&audio/output_touch_edited.mp4,uphold,output,None,,,,,,,,,,,,,,,,,,,,,,,,,,,0,21,21,18,,,,,,,,,,,,,,,,,,,,,,,,,,,,,,,,,,,,,,,,,,,,,,,,None,,,None, uphold,"['u', 'p', 'h', 'o', 'l', 'd', 'return']","[0.8832420001272112, 1.0032111001200974, 1.2672815001569688, 1.4511242001317441, 1.6511643000412732, 1.7471621001604944, 2.1952747001778334]",,,,,,,,,,,,,,,,,,,,,,,,9,001,F,2023_Feb_22_1243,student_TT_local,2021.1.4,48.021006343742876,
,None,None,None,None,None,None,None,None,None,None,mirage,malady,6.5,7.5,video&audio/sentence1_TT_3X.mp4,video&audio/shrewd_TT_3X.mp4,revoke,shrewd,None,,,,,,,,,,,,,,,,,,,,,,,,,,,0,22,22,6,,,,,,,,,,,,,,,,,,,,,,,,,,,,,,,,,,,,,,,,,,,,,,,,None,,,None, revoke,"['r', 'e', 'v', 'o', 'k', 'e', 'return']","[0.6470120998565108, 0.7590375000145286, 1.0311663998290896, 1.1270353998988867, 1.199218099936843, 1.295020499965176, 1.4951877000276]",,,,,,,,,,,,,,,,,,,,,,,,9,001,F,2023_Feb_22_1243,student_TT_local,2021.1.4,48.021006343742876,
,None,None,None,None,None,None,None,None,None,None,potent,neural,6.5,7.5,video&audio/sentence2_TT_3X.mp4,video&audio/septic_TT_3X.mp4,ordain,septic,None,,,,,,,,,,,,,,,,,,,,,,,,,,,0,23,23,13,,,,,,,,,,,,,,,,,,,,,,,,,,,,,,,,,,,,,,,,,,,,,,,,None,,,None, ordain,"['o', 'r', 'd', 'a', 'i', 'n', 'return']","[0.680990100139752, 0.8250434000510722, 1.0249958999920636, 1.417303099995479, 1.497308700112626, 1.5452418001368642, 1.8650160001125187]",,,,,,,,,,,,,,,,,,,,,,,,9,001,F,2023_Feb_22_1243,student_TT_local,2021.1.4,48.021006343742876,
,None,None,None,None,None,None,None,None,None,None,savant,cervix,19.5,20.5,video&audio/Sentence2_touch_edited.mp4,video&audio/cobble_touch_edited.mp4,export,cobble,None,,,,,,,,,,,,,,,,,,,,,,,,,,,0,24,24,19,,,,,,,,,,,,,,,,,,,,,,,,,,,,,,,,,,,,,,,,,,,,,,,,None,,,None, export,"['e', 'x', 'p', 'o', 'r', 't', 'return']","[0.6733227998483926, 0.9051180998794734, 1.0734853998292238, 1.1372648999094963, 1.2977533999364823, 1.4174313000403345, 1.5613437998108566]",,,,,,,,,,,,,,,,,,,,,,,,9,001,F,2023_Feb_22_1243,student_TT_local,2021.1.4,48.021006343742876,
,None,None,None,None,None,None,None,None,None,None,sonnet,confer,6.5,7.5,video&audio/sentence1_TT_3X.mp4,video&audio/innate_TT_3X.mp4,tamper,innate,None,,,,,,,,,,,,,,,,,,,,,,,,,,,0,25,25,12,,,,,,,,,,,,,,,,,,,,,,,,,,,,,,,,,,,,,,,,,,,,,,,,None,,,None, tamper,"['t', 'a', 'm', 'p', 'e', 'r', 'return']","[0.828189899912104, 1.3323646998032928, 1.476315899984911, 1.572051899973303, 1.6920558998826891, 1.8280742999631912, 1.964109999826178]",,,,,,,,,,,,,,,,,,,,,,,,9,001,F,2023_Feb_22_1243,student_TT_local,2021.1.4,48.021006343742876,
,None,None,None,None,None,None,None,None,None,None,brazen,piston,19.5,20.5,video&audio/Sentence3_touch_edited.mp4,video&audio/caviar_touch_edited.mp4,shrill,caviar,None,,,,,,,,,,,,,,,,,,,,,,,,,,,0,26,26,20,,,,,,,,,,,,,,,,,,,,,,,,,,,,,,,,,,,,,,,,,,,,,,,,None,,,None, shrill,"['s', 'h', 'i', 'backspace', 'r', 'i', 'l', 'l', 'return']","[0.7341213000472635, 0.846167900133878, 1.254056700039655, 1.8062054000329226, 1.9421377000398934, 2.0220648001413792, 2.3581517001148313, 2.95834150002338, 3.1344089000485837]",,,,,,,,,,,,,,,,,,,,,,,,9,001,F,2023_Feb_22_1243,student_TT_local,2021.1.4,48.021006343742876,
,None,None,None,None,None,None,None,None,None,None,coerce,falter,19.5,20.5,video&audio/Sentence4_touch_edited.mp4,video&audio/tandem_touch_edited.mp4,origin,tandem,None,,,,,,,,,,,,,,,,,,,,,,,,,,,0,27,27,15,,,,,,,,,,,,,,,,,,,,,,,,,,,,,,,,,,,,,,,,,,,,,,,,None,,,None, origin,"['o', 'r', 'i', 'g', 'i', 'n', 'return']","[0.7128082001581788, 0.8731906001921743, 0.9688192000612617, 1.1287565000820905, 1.2172902000602335, 1.2816510000266135, 1.7849121000617743]",,,,,,,,,,,,,,,,,,,,,,,,9,001,F,2023_Feb_22_1243,student_TT_local,2021.1.4,48.021006343742876,
,None,None,None,None,None,None,None,None,None,None,novice,parcel,6.5,7.5,video&audio/sentence5_TT_3X.mp4,video&audio/primal_TT_3X.mp4,entail,primal,None,,,,,,,,,,,,,,,,,,,,,,,,,,,0,28,28,4,,,,,,,,,,,,,,,,,,,,,,,,,,,,,,,,,,,,,,,,,,,,,,,,None,,,None, entail,"['e', 'n', 't', 'a', 'i', 'l', 'return']","[0.681990000186488, 0.7939430000260472, 0.9699566001072526, 1.225917600095272, 1.3379101001191884, 1.5298164000269026, 1.9378503002226353]",,,,,,,,,,,,,,,,,,,,,,,,9,001,F,2023_Feb_22_1243,student_TT_local,2021.1.4,48.021006343742876,
,None,None,None,None,None,None,None,None,None,None,binder,forage,19.5,20.5,video&audio/Sentence6_touch_edited.mp4,video&audio/campus_touch_edited.mp4,allure,campus,None,,,,,,,,,,,,,,,,,,,,,,,,,,,0,29,29,29,,,,,,,,,,,,,,,,,,,,,,,,,,,,,,,,,,,,,,,,,,,,,,,,None,,,None, allure,"['a', 'l', 'l', 'u', 'r', 'e', 'return']","[0.7638634000904858, 0.8598883000668138, 0.9718735001515597, 1.1878971001133323, 1.3558046000543982, 1.435865000123158, 1.627801900031045]",,,,,,,,,,,,,,,,,,,,,,,,9,001,F,2023_Feb_22_1243,student_TT_local,2021.1.4,48.021006343742876,
,,,,,,,,,,,,,,,,,,,,typingRatingScale.png,"How would you rate your typing performance in the previous section?

Press a number on your keyboard according to the rating scale below to give your answer. Your first answer will be accepted.",,,,,,,,,,,,,,,,,,,,,,,,,,,,,0,0,0,0,,,,,,,,,,,,,,,,,,,,,,,,,,,,,,,,,,,,,,,,,,,,,,,,,,,['4'],[4.042680900078267],,,,,,,,,,,,,,,,,,,,,,9,001,F,2023_Feb_22_1243,student_TT_local,2021.1.4,48.021006343742876,
,,,,,,,,,,,,,,,,,,,,visualImageryScale.png,"While imagining yourself typing, how clear was your visual image?

Press a number on your keyboard according to the rating scale below to give your answer. Your first answer will be accepted.",,,,,,,,,,,,,,,,,,,,,,,,,,,,,0,1,1,1,,,,,,,,,,,,,,,,,,,,,,,,,,,,,,,,,,,,,,,,,,,,,,,,,,,['4'],[5.968800999922678],,,,,,,,,,,,,,,,,,,,,,9,001,F,2023_Feb_22_1243,student_TT_local,2021.1.4,48.021006343742876,
,,,,,,,,,,,,,,,,,,,,kinestheticImageryScale.png,"While imagining yourself typing, how intense were the sensations associated with the imagined movement?

Press a number on your keyboard according to the rating scale below to give your answer. Your first answer will be accepted.",,,,,,,,,,,,,,,,,,,,,,,,,,,,,0,2,2,2,,,,,,,,,,,,,,,,,,,,,,,,,,,,,,,,,,,,,,,,,,,,,,,,,,,['5'],[4.6599884000606835],,,,,,,,,,,,,,,,,,,,,,9,001,F,2023_Feb_22_1243,student_TT_local,2021.1.4,48.021006343742876,
,None,None,None,None,None,None,None,None,None,None,goblet,botany,19.5,20.5,video&audio/Sentence4_touch_edited.mp4,video&audio/trench_touch_edited.mp4,ethnic,trench,None,,,,,,,,,,,,,,,,,,,,,,,,,,,,,,,,,,,,,,,,,,,0,0,0,27,,,,,,,,,,,,,,,,,,,,,,,,,,,,,,,,,,,,,,,,,2066.5489217999857,2073.066035500029,None, butter,"['b', 'u', 't', 't', 'e', 'r', 'return']","[0.7058953999076039, 0.8175478999037296, 1.0335740998852998, 1.1856531999073923, 1.3618125000502914, 1.481479899957776, 1.6095479999203235]",2109.3770240999293,2128.8930498999543,None, botany,"['b', 'o', 't', 'a', 'n', 'y', 'return']","[0.7807533999439329, 0.8686548999976367, 0.9806057999376208, 1.2688462000805885, 1.4046847000718117, 1.5489294999279082, 1.8290268999990076]",,,,,,,,,,9,001,F,2023_Feb_22_1243,student_TT_local,2021.1.4,48.021006343742876,
,None,None,None,None,None,None,None,None,None,None,infirm,pulpit,6.5,7.5,video&audio/sentence4_TT_3X.mp4,video&audio/oblige_TT_3X.mp4,mystic,oblige,None,,,,,,,,,,,,,,,,,,,,,,,,,,,,,,,,,,,,,,,,,,,0,1,1,3,,,,,,,,,,,,,,,,,,,,,,,,,,,,,,,,,,,,,,,,,,,,,,,2131.749936999986,2138.266900599934,None, pulpit,"['p', 'u', 'p', 'l', 'i', 't', 'backspace', 'backspace', 'backspace', 'backspace', 'backspace', 'l', 'p', 'o', 't', 'backspace', 'backspace', 'backspace', 'backspace', 'u', 'l', 'p', 'i', 't', 'return']","[0.7451190000865608, 0.9371133001986891, 1.1691190002020448, 1.2731213001534343, 1.6012875000014901, 1.7528759001288563, 2.584933000151068, 2.7129909000359476, 2.8490159001667053, 2.9690434001386166, 3.192979000043124, 3.5051003000698984, 3.601264600176364, 3.865114400163293, 3.9611153001897037, 4.265042700106278, 4.401015700073913, 4.54493820015341, 4.69687890005298, 5.297009099973366, 5.536953800125048, 5.633389200083911, 5.785151100018993, 5.8889572999905795, 6.50512080010958]",,,,,,,,,,9,001,F,2023_Feb_22_1243,student_TT_local,2021.1.4,48.021006343742876,
,None,None,None,None,None,None,None,None,None,None,savant,cervix,19.5,20.5,video&audio/Sentence2_touch_edited.mp4,video&audio/cobble_touch_edited.mp4,export,cobble,None,,,,,,,,,,,,,,,,,,,,,,,,,,,,,,,,,,,,,,,,,,,0,2,2,19,,,,,,,,,,,,,,,,,,,,,,,,,,,,,,,,,,,,,,,,,,,,,,,2145.8103736001067,2165.3264641999267,None, cervix,"['c', 'e', 'r', 'v', 'i', 'x', 'return']","[1.0049525001086295, 1.2054518999066204, 1.373011500108987, 2.0129937999881804, 2.132913300069049, 2.2449586999136955, 2.764990899944678]",,,,,,,,,,9,001,F,2023_Feb_22_1243,student_TT_local,2021.1.4,48.021006343742876,
,None,None,None,None,None,None,None,None,None,None,sherry,jackal,6.5,7.5,video&audio/sentence4_TT_3X.mp4,video&audio/hamlet_TT_3X.mp4,shroud,hamlet,None,,,,,,,,,,,,,,,,,,,,,,,,,,,,,,,,,,,,,,,,,,,0,3,3,9,,,,,,,,,,,,,,,,,,,,,,,,,,,,,,,,,,,,,,,,,,,,,,,2169.1202992000617,2175.637426099973,None, jacka;,"['j', 'a', 'c', 'k', 'a', 'semicolon', 'return']","[0.7816691999323666, 0.8775895999278873, 1.110269600059837, 1.2061973998788744, 1.3337975000031292, 1.4376610000617802, 1.8697096998803318]",,,,,,,,,,9,001,F,2023_Feb_22_1243,student_TT_local,2021.1.4,48.021006343742876,
,"While you watch the video, imagine yourself typing the word on the screen, like how you did in the imagery practice. While you watch the video and imagine this, rest your hands on your keyboard but DO NOT type until AFTER you see the typing prompt.

Press 'enter/return' to go to the next page.","While watching the video, imagine yourself typing the word on the screen, like how you did in the imagery practice. While you watch the video and imagine this, rest your hands on your keyboard but DO NOT type until AFTER you see the typing prompt.

Press 'enter/return' to go to the next page.",video&audio/Example_AOMI_imagine.png,1.6,1,butter,6.5,7.5,video&audio/amount_TT_3X.mp4,video&audio/butter_TT_3X.mp4,plight,ascend,6.5,7.5,video&audio/sentence2_TT_3X.mp4,video&audio/metric_TT_3X.mp4,eatery,metric,2 = AOMIspec,,,,,,,,,,,,,,,,,,,,,,,,,,,,,,,,,,,,,,,,,,,0,4,4,1,,,,,,,,,,,,,,,,,,,,,,,,,,,,,,,,,,,,,,,,,,,,,,,2178.537129400065,2185.0532705001533,None, ascend,"['a', 's', 'c', 'e', 'n', 'd', 'return']","[0.6859319999348372, 1.1341891998890787, 1.3662583997938782, 1.5741688997950405, 1.6539912999141961, 1.806102299829945, 2.006063199834898]",,,,,,,,,,9,001,F,2023_Feb_22_1243,student_TT_local,2021.1.4,48.021006343742876,
,None,None,None,None,None,None,None,None,None,None,deduct,hippie,6.5,7.5,video&audio/sentence3_TT_3X.mp4,video&audio/hearth_TT_3X.mp4,herbal,hearth,None,,,,,,,,,,,,,,,,,,,,,,,,,,,,,,,,,,,,,,,,,,,0,5,5,14,,,,,,,,,,,,,,,,,,,,,,,,,,,,,,,,,,,,,,,,,,,,,,,2188.098041099962,2194.6144582999405,None, hippie,"['h', 'i', 'p', 'p', 'i', 'o', 'e', 'return']","[0.727643399965018, 0.8397818000521511, 1.2000039999838918, 1.32788040000014, 1.5196340999100357, 1.5280476999469101, 1.5516712998505682, 2.1838539999444038]",,,,,,,,,,9,001,F,2023_Feb_22_1243,student_TT_local,2021.1.4,48.021006343742876,
,"This is Section 2.

In this section, your task will be the same as before - that is, to type the word you see on the screen AFTER the typing prompt. However, rather than just seeing the word before typing, you will also see a video of someone typing different words to what you will need to type at different speeds. 

Press 'enter/return' to go to the next page.","This is Section 4. 

In this section, your task will be the same as before - that is, to type the word you see on the screen after the typing prompt. You will see a video again, like in Section 2, only this time, the video will show someone the same word that you must type at different speeds. 

Press 'enter/return' to go to the next page.",video&audio/Example_AOMI_layout.png,1.6,0.6,afford,19.5,20.5,video&audio/amount_touch_edited.mp4,video&audio/afford_touch_edited.mp4,vanity,matrix,6.5,7.5,video&audio/sentence1_TT_3X.mp4,video&audio/hinder_TT_3X.mp4,breach,hinder,1 = AOMIgen,,,,,,,,,,,,,,,,,,,,,,,,,,,,,,,,,,,,,,,,,,,0,6,6,0,,,,,,,,,,,,,,,,,,,,,,,,,,,,,,,,,,,,,,,,,,,,,,,2197.8470306000672,2204.3631198001094,None, matrix,"['m', 'a', 't', 'r', 'i', 'x', 'return']","[0.7754017999395728, 0.9034279000479728, 1.1594871999695897, 1.3354536001570523, 1.5994617000687867, 1.7274982000235468, 1.927562199998647]",,,,,,,,,,9,001,F,2023_Feb_22_1243,student_TT_local,2021.1.4,48.021006343742876,
,None,None,None,None,None,None,None,None,None,None,satire,cortex,19.5,20.5,video&audio/Sentence4_touch_edited.mp4,video&audio/induce_touch_edited.mp4,mussel,induce,None,,,,,,,,,,,,,,,,,,,,,,,,,,,,,,,,,,,,,,,,,,,0,7,7,21,,,,,,,,,,,,,,,,,,,,,,,,,,,,,,,,,,,,,,,,,,,,,,,2207.3248687000014,2226.8401286001317,None, cortex,"['o', 'r', 't', 'e', 'x', 'backspace', 'backspace', 'backspace', 'backspace', 'backspace', 'c', 'o', 'r', 't', 'e', 'x', 'return']","[0.6754142001736909, 0.9150619001593441, 1.1551214000210166, 1.2591345000546426, 1.5151919000782073, 1.9873904001433402, 2.115209200186655, 2.235917800106108, 2.3632914000190794, 2.6910700001753867, 3.011250700103119, 3.107104000169784, 3.2674668000545353, 3.3955285002011806, 3.4912727000191808, 3.7713709000963718, 3.9151595002040267]",,,,,,,,,,9,001,F,2023_Feb_22_1243,student_TT_local,2021.1.4,48.021006343742876,
,None,None,None,None,None,None,None,None,None,None,mirage,malady,6.5,7.5,video&audio/sentence1_TT_3X.mp4,video&audio/shrewd_TT_3X.mp4,revoke,shrewd,None,,,,,,,,,,,,,,,,,,,,,,,,,,,,,,,,,,,,,,,,,,,0,8,8,6,,,,,,,,,,,,,,,,,,,,,,,,,,,,,,,,,,,,,,,,,,,,,,,2231.8018545999657,2238.3178634999786,None, malady,"['m', 'a', 'l', 'a', 'd', 'y', 'return']","[0.693589000031352, 0.8296711000148207, 0.9175124999601394, 1.0295866001397371, 1.197496599983424, 1.2776153001468629, 1.8695928000379354]",,,,,,,,,,9,001,F,2023_Feb_22_1243,student_TT_local,2021.1.4,48.021006343742876,
,None,None,None,None,None,None,None,None,None,None,novice,parcel,6.5,7.5,video&audio/sentence5_TT_3X.mp4,video&audio/primal_TT_3X.mp4,entail,primal,None,,,,,,,,,,,,,,,,,,,,,,,,,,,,,,,,,,,,,,,,,,,0,9,9,4,,,,,,,,,,,,,,,,,,,,,,,,,,,,,,,,,,,,,,,,,,,,,,,2241.2164231000934,2247.73330130009,None, parcel,"['p', 'a', 'r', 'c', 'e', 'l', 'return']","[0.755985900061205, 0.8438292001374066, 1.0758523000404239, 1.2838022001087666, 1.4439459000714123, 1.5077699001412839, 1.939805299974978]",,,,,,,,,,9,001,F,2023_Feb_22_1243,student_TT_local,2021.1.4,48.021006343742876,
,None,None,None,None,None,None,None,None,None,None,murmur,ritual,19.5,20.5,video&audio/Sentence6_touch_edited.mp4,video&audio/clergy_touch_edited.mp4,portal,clergy,None,,,,,,,,,,,,,,,,,,,,,,,,,,,,,,,,,,,,,,,,,,,0,10,10,17,,,,,,,,,,,,,,,,,,,,,,,,,,,,,,,,,,,,,,,,,,,,,,,2260.318481200142,2279.833840999985,None, ritual,"['r', 'e', 'i', 't', 'u', 'a', 'l', 'backspace', 'backspace', 'backspace', 'backspace', 'backspace', 'backspace', 'i', 't', 'u', 'a', 'l', 'return']","[0.696286499965936, 0.8087234999984503, 0.9524811999872327, 1.0965432000812143, 1.2243575998581946, 1.3766514000017196, 1.5203893999569118, 1.960347899934277, 2.0884716999717057, 2.224366999929771, 2.3523349000606686, 2.4724435000680387, 2.8164321000222117, 3.1443540998734534, 3.248850699979812, 3.3525072999764234, 3.5130362000782043, 3.592974500032142, 4.064355100039393]",,,,,,,,,,9,001,F,2023_Feb_22_1243,student_TT_local,2021.1.4,48.021006343742876,
,None,None,None,None,None,None,None,None,None,None,impose,belfry,19.5,20.5,video&audio/Sentence6_touch_edited.mp4,video&audio/girdle_touch_edited.mp4,linear,girdle,None,,,,,,,,,,,,,,,,,,,,,,,,,,,,,,,,,,,,,,,,,,,0,11,11,23,,,,,,,,,,,,,,,,,,,,,,,,,,,,,,,,,,,,,,,,,,,,,,,2284.9409330000635,2304.4563780999742,None, belfry,"['b', 'e', 'l', 'f', 'r', 'y', 'return']","[0.667030300013721, 0.8514886000193655, 0.9471050000283867, 1.1631084999535233, 1.2993652999866754, 1.3713110000826418, 1.7390702001284808]",,,,,,,,,,9,001,F,2023_Feb_22_1243,student_TT_local,2021.1.4,48.021006343742876,
,None,None,None,None,None,None,None,None,None,None,critic,obsess,6.5,7.5,video&audio/sentence5_TT_3X.mp4,video&audio/zephyr_TT_3X.mp4,fusion,zephyr,None,,,,,,,,,,,,,,,,,,,,,,,,,,,,,,,,,,,,,,,,,,,0,12,12,10,,,,,,,,,,,,,,,,,,,,,,,,,,,,,,,,,,,,,,,,,,,,,,,2307.2288748000283,2313.747372600017,None, obsess,"['o', 'b', 's', 'e', 's', 's', 'return']","[1.0070390000473708, 1.1032701001968235, 1.2231423000339419, 1.398898300016299, 1.5670237001031637, 1.6871423001866788, 1.9510891002137214]",,,,,,,,,,9,001,F,2023_Feb_22_1243,student_TT_local,2021.1.4,48.021006343742876,
,None,None,None,None,None,None,None,None,None,None,musket,subtle,19.5,20.5,video&audio/Sentence5_touch_edited.mp4,video&audio/fungal_touch_edited.mp4,mucous,fungal,None,,,,,,,,,,,,,,,,,,,,,,,,,,,,,,,,,,,,,,,,,,,0,13,13,22,,,,,,,,,,,,,,,,,,,,,,,,,,,,,,,,,,,,,,,,,,,,,,,2316.7286364000756,2336.2440025999676,None, subtle,"['s', 'u', 'b', 't', 'l', 'e', 'return']","[0.646186999976635, 0.7662420999258757, 0.8380523000378162, 1.014047299977392, 1.1820338000543416, 1.2540512001141906, 1.7099619000218809]",,,,,,,,,,9,001,F,2023_Feb_22_1243,student_TT_local,2021.1.4,48.021006343742876,
,None,None,None,None,None,None,None,None,None,None,coerce,falter,19.5,20.5,video&audio/Sentence4_touch_edited.mp4,video&audio/tandem_touch_edited.mp4,origin,tandem,None,,,,,,,,,,,,,,,,,,,,,,,,,,,,,,,,,,,,,,,,,,,0,14,14,15,,,,,,,,,,,,,,,,,,,,,,,,,,,,,,,,,,,,,,,,,,,,,,,2338.9974510001484,2358.51269270014,None, falter,"['f', 'a', 'l', 't', 'e', 'r', 'return']","[0.5693288000766188, 0.7776260001119226, 0.8493953000288457, 1.1611385999713093, 1.2491180000361055, 1.3855043000075966, 1.609883600147441]",,,,,,,,,,9,001,F,2023_Feb_22_1243,student_TT_local,2021.1.4,48.021006343742876,
,None,None,None,None,None,None,None,None,None,None,pursue,debtor,19.5,20.5,video&audio/Sentence1_touch_edited.mp4,video&audio/output_touch_edited.mp4,uphold,output,None,,,,,,,,,,,,,,,,,,,,,,,,,,,,,,,,,,,,,,,,,,,0,15,15,18,,,,,,,,,,,,,,,,,,,,,,,,,,,,,,,,,,,,,,,,,,,,,,,2361.1622876001056,2380.676699399948,None, debtor,"['d', 'e', 'b', 't', 'o', 'r']","[0.6232817999552935, 0.8466705000028014, 1.3108175999950618, 1.4867779000196606, 2.3109025000594556, 2.4070344001520425]",,,,,,,,,,9,001,F,2023_Feb_22_1243,student_TT_local,2021.1.4,48.021006343742876,
,None,None,None,None,None,None,None,None,None,None,strife,tariff,6.5,7.5,video&audio/sentence2_TT_3X.mp4,video&audio/delude_TT_3X.mp4,galley,delude,None,,,,,,,,,,,,,,,,,,,,,,,,,,,,,,,,,,,,,,,,,,,0,16,16,7,,,,,,,,,,,,,,,,,,,,,,,,,,,,,,,,,,,,,,,,,,,,,,,2384.368625000119,2390.883643100038,None, tariff,"['t', 'a', 'r', 'i', 'f', 'f', 'return']","[0.7177045000717044, 0.9978261000942439, 1.2219783999025822, 1.3266366000752896, 1.4299023000057787, 2.0298870999831706, 2.1897376000415534]",,,,,,,,,,9,001,F,2023_Feb_22_1243,student_TT_local,2021.1.4,48.021006343742876,
,None,None,None,None,None,None,None,None,None,None,sonnet,confer,6.5,7.5,video&audio/sentence1_TT_3X.mp4,video&audio/innate_TT_3X.mp4,tamper,innate,None,,,,,,,,,,,,,,,,,,,,,,,,,,,,,,,,,,,,,,,,,,,0,17,17,12,,,,,,,,,,,,,,,,,,,,,,,,,,,,,,,,,,,,,,,,,,,,,,,2394.1185983000323,2400.6330383000895,None, confer,"['c', 'p', 'n', 'backspace', 'backspace', 'backspace', 'o', 'n', 'f', 'e', 'r', 'return']","[0.6883233999833465, 0.8482553001958877, 0.8802497000433505, 1.7363168001174927, 1.8643539000768214, 2.4083521000575274, 2.6724170001689345, 2.728445600019768, 2.8883663001470268, 2.992355199996382, 3.104284100001678, 3.536841900087893]",,,,,,,,,,9,001,F,2023_Feb_22_1243,student_TT_local,2021.1.4,48.021006343742876,
,None,None,None,None,None,None,None,None,None,None,upkeep,kipper,19.5,20.5,video&audio/Sentence2_touch_edited.mp4,video&audio/meddle_touch_edited.mp4,divert,meddle,None,,,,,,,,,,,,,,,,,,,,,,,,,,,,,,,,,,,,,,,,,,,0,18,18,25,,,,,,,,,,,,,,,,,,,,,,,,,,,,,,,,,,,,,,,,,,,,,,,2405.19674569997,2424.7129325999413,None, kipper,"['k', 'i', 'p', 'p', 'e', 'r', 'return']","[0.7785600000061095, 0.9538797999266535, 1.4342687998432666, 1.5620090998709202, 1.6660860998090357, 1.7461053999140859, 2.2019308998715132]",,,,,,,,,,9,001,F,2023_Feb_22_1243,student_TT_local,2021.1.4,48.021006343742876,
,None,None,None,None,None,None,None,None,None,None,fodder,devise,19.5,20.5,video&audio/Sentence1_touch_edited.mp4,video&audio/mangle_touch_edited.mp4,warble,mangle,None,,,,,,,,,,,,,,,,,,,,,,,,,,,,,,,,,,,,,,,,,,,0,19,19,24,,,,,,,,,,,,,,,,,,,,,,,,,,,,,,,,,,,,,,,,,,,,,,,2427.9465886000544,2447.460655400064,None, devise,"['d', 'e', 'i', 'v', 's', 'e', 'backspace', 'backspace', 'backspace', 'backspace', 'backspace', 'e', 'v', 'i', 's', 'e', 'return']","[0.5813033999875188, 0.7414619999472052, 0.9020108000840992, 0.9654031998943537, 1.0698945000767708, 1.2214249998796731, 1.8135979999788105, 1.9575863000936806, 2.0935106000397354, 2.2214764000382274, 2.605306199984625, 3.2455559000372887, 3.6854469999670982, 4.005841400008649, 4.109761100029573, 4.253460299922153, 4.677570699946955]",,,,,,,,,,9,001,F,2023_Feb_22_1243,student_TT_local,2021.1.4,48.021006343742876,
,"Remember to type as QUICKLY and ACCURATELY as possible after the 'get ready' prompt.

Ask the experimenter any questions now. Please put on the headphones.

You will get one practice trial. Press 'enter/return' when you are ready to start the practice.","Remember to type as QUICKLY and ACCURATELY as you can after the 'get ready' prompt.

Ask the experimenter any questions now. Please put on the headphones.

You will get one practice trial. Press 'enter/return' when you are ready to start the practice.",video&audio/Example_AOMI_total.png,1.8,0.7,None,None,None,None,None,jargon,frugal,6.5,7.5,video&audio/sentence3_TT_3X.mp4,video&audio/oppose_TT_3X.mp4,ghetto,oppose,None,,,,,,,,,,,,,,,,,,,,,,,,,,,,,,,,,,,,,,,,,,,0,20,20,2,,,,,,,,,,,,,,,,,,,,,,,,,,,,,,,,,,,,,,,,,,,,,,,2468.4199441999663,2474.9368346000556,None, frugal,"['f', 'r', 'u', 'g', 'a', 'l', 'return']","[0.5293300000485033, 0.5934586999937892, 0.7933620000258088, 0.8813640000298619, 1.1537457001395524, 1.2654033000580966, 1.7854553000070155]",,,,,,,,,,9,001,F,2023_Feb_22_1243,student_TT_local,2021.1.4,48.021006343742876,
,None,None,None,None,None,None,None,None,None,None,parole,solemn,6.5,7.5,video&audio/sentence3_TT_3X.mp4,video&audio/befall_TT_3X.mp4,ration,befall,None,,,,,,,,,,,,,,,,,,,,,,,,,,,,,,,,,,,,,,,,,,,0,21,21,8,,,,,,,,,,,,,,,,,,,,,,,,,,,,,,,,,,,,,,,,,,,,,,,2477.7531085000373,2484.269111600006,None, solemn,"['s', 'o', 'l', 'e', 'm', 'n', 'return']","[0.6777717000804842, 0.7656473000533879, 1.1176909001078457, 1.2619310999289155, 1.389678900130093, 1.461620599962771, 2.1657036000397056]",,,,,,,,,,9,001,F,2023_Feb_22_1243,student_TT_local,2021.1.4,48.021006343742876,
,None,None,None,None,None,None,None,None,None,None,manure,picket,19.5,20.5,video&audio/Sentence5_touch_edited.mp4,video&audio/parish_touch_edited.mp4,gullet,parish,None,,,,,,,,,,,,,,,,,,,,,,,,,,,,,,,,,,,,,,,,,,,0,22,22,28,,,,,,,,,,,,,,,,,,,,,,,,,,,,,,,,,,,,,,,,,,,,,,,2487.48159989994,2506.9956857000943,None, picket,"['p', 'i', 'c', 'k', 'e', 't', 'return']","[0.6464915000833571, 0.7908562000375241, 0.9432946001179516, 1.0389257001224905, 1.1988425001036376, 1.2867384001147002, 1.790820199996233]",,,,,,,,,,9,001,F,2023_Feb_22_1243,student_TT_local,2021.1.4,48.021006343742876,
,None,None,None,None,None,None,None,None,None,None,quarry,covert,6.5,7.5,video&audio/sentence6_TT_3X.mp4,video&audio/patent_TT_3X.mp4,defame,patent,None,,,,,,,,,,,,,,,,,,,,,,,,,,,,,,,,,,,,,,,,,,,0,23,23,11,,,,,,,,,,,,,,,,,,,,,,,,,,,,,,,,,,,,,,,,,,,,,,,2509.8317567999475,2516.3487241000403,None, covert,"['c', 'o', 'v', 'e', 'r', 't', 'return']","[0.6854735999368131, 0.8134699000511318, 0.941544400062412, 1.1256516999565065, 1.3175878999754786, 1.7734670001082122, 2.3335059001110494]",,,,,,,,,,9,001,F,2023_Feb_22_1243,student_TT_local,2021.1.4,48.021006343742876,
,None,None,None,None,None,None,None,None,None,None,potent,neural,6.5,7.5,video&audio/sentence2_TT_3X.mp4,video&audio/septic_TT_3X.mp4,ordain,septic,None,,,,,,,,,,,,,,,,,,,,,,,,,,,,,,,,,,,,,,,,,,,0,24,24,13,,,,,,,,,,,,,,,,,,,,,,,,,,,,,,,,,,,,,,,,,,,,,,,2519.727178900037,2526.243137100013,None, neural,"['n', 'e', 'u', 'r', 'a', 'l', 'return']","[0.6132331001572311, 0.7493257999885827, 0.8372556001413614, 0.9171214001253247, 1.1571790999732912, 1.2370895999483764, 1.7012716999743134]",,,,,,,,,,9,001,F,2023_Feb_22_1243,student_TT_local,2021.1.4,48.021006343742876,
,None,None,None,None,None,None,None,None,None,None,brazen,piston,19.5,20.5,video&audio/Sentence3_touch_edited.mp4,video&audio/caviar_touch_edited.mp4,shrill,caviar,None,,,,,,,,,,,,,,,,,,,,,,,,,,,,,,,,,,,,,,,,,,,0,25,25,20,,,,,,,,,,,,,,,,,,,,,,,,,,,,,,,,,,,,,,,,,,,,,,,2528.976595300017,2548.49068180006,None, piston,"['p', 'i', 's', 't', 'o', 'n', 'return']","[1.072145399870351, 1.1528686999808997, 1.2406428998801857, 1.4721748000010848, 1.5361955999396741, 1.6243582000024617, 2.1528208998497576]",,,,,,,,,,9,001,F,2023_Feb_22_1243,student_TT_local,2021.1.4,48.021006343742876,
,None,None,None,None,None,None,None,None,None,None,binder,forage,19.5,20.5,video&audio/Sentence6_touch_edited.mp4,video&audio/campus_touch_edited.mp4,allure,campus,None,,,,,,,,,,,,,,,,,,,,,,,,,,,,,,,,,,,,,,,,,,,0,26,26,29,,,,,,,,,,,,,,,,,,,,,,,,,,,,,,,,,,,,,,,,,,,,,,,2551.6804331000894,2571.196783200139,None, forage,"['f', 'o', 'r', 'a', 'g', 'e', 'return']","[0.6627096999436617, 0.8632316999137402, 0.99892139993608, 1.2469927000347525, 1.3270088999997824, 1.4468455999158323, 1.750551600009203]",,,,,,,,,,9,001,F,2023_Feb_22_1243,student_TT_local,2021.1.4,48.021006343742876,
,None,None,None,None,None,None,None,None,None,None,convoy,plasma,19.5,20.5,video&audio/Sentence5_touch_edited.mp4,video&audio/jailer_touch_edited.mp4,nettle,jailer,None,,,,,,,,,,,,,,,,,,,,,,,,,,,,,,,,,,,,,,,,,,,0,27,27,16,,,,,,,,,,,,,,,,,,,,,,,,,,,,,,,,,,,,,,,,,,,,,,,2573.9915678000543,2593.506710899994,None, plasma,"['p', 'l', 's', 'backspace', 'a', 's', 'm', 'a', 'return']","[0.6248605998698622, 0.7693048999644816, 1.049374100053683, 1.6567766999360174, 1.8415156998671591, 1.9771008999086916, 2.081233900040388, 2.120851199841127, 2.6729756998829544]",,,,,,,,,,9,001,F,2023_Feb_22_1243,student_TT_local,2021.1.4,48.021006343742876,
,None,None,None,None,None,None,None,None,None,None,revolt,virile,6.5,7.5,video&audio/sentence6_TT_3X.mp4,video&audio/joiner_TT_3X.mp4,apathy,joiner,None,,,,,,,,,,,,,,,,,,,,,,,,,,,,,,,,,,,,,,,,,,,0,28,28,5,,,,,,,,,,,,,,,,,,,,,,,,,,,,,,,,,,,,,,,,,,,,,,,2597.2175414001103,2603.7343357999343,None, virile,"['v', 'i', 'r', 'i', 'l', 'e', 'return']","[0.7885191000532359, 0.9560682999435812, 1.1004262999631464, 1.1643371998798102, 1.3560480999294668, 1.396441400051117, 1.8042031999211758]",,,,,,,,,,9,001,F,2023_Feb_22_1243,student_TT_local,2021.1.4,48.021006343742876,
,None,None,None,None,None,None,None,None,None,None,legion,subdue,19.5,20.5,video&audio/Sentence3_touch_edited.mp4,video&audio/feudal_touch_edited.mp4,matron,feudal,None,,,,,,,,,,,,,,,,,,,,,,,,,,,,,,,,,,,,,,,,,,,0,29,29,26,,,,,,,,,,,,,,,,,,,,,,,,,,,,,,,,,,,,,,,,,,,,,,,2606.569226300111,2626.085804700153,None, subdue,"['s', 'u', 'b', 'd', 'u', 'e', 'return']","[0.7331091999076307, 0.8051721998490393, 0.9251788998953998, 1.0771509998012334, 1.1811483998317271, 1.2451712999027222, 1.6054289999883622]",,,,,,,,,,9,001,F,2023_Feb_22_1243,student_TT_local,2021.1.4,48.021006343742876,
,,,,,,,,,,,,,,,,,,,,typingRatingScale.png,"How would you rate your typing performance in the previous section?

Press a number on your keyboard according to the rating scale below to give your answer. Your first answer will be accepted.",,,,,,,,,,,,,,,,,,,,,,,,,,,,,,,,,,,,,,,,,,,,,0,0,0,0,,,,,,,,,,,,,,,,,,,,,,,,,,,,,,,,,,,,,,,,,,,,,,,,,['3'],[2.439506300026551],,,,,,,,9,001,F,2023_Feb_22_1243,student_TT_local,2021.1.4,48.021006343742876,
,,,,,,,,,,,,,,,,,,,,imageryCheckScale.png,"In the previous section did you imagine yourself typing?

Press a number on your keyboard according to the rating scale below to give your answer. Your first answer will be accepted.",,,,,,,,,,,,,,,,,,,,,,,,,,,,,,,,,,,,,,,,,,,,,0,1,1,1,,,,,,,,,,,,,,,,,,,,,,,,,,,,,,,,,,,,,,,,,,,,,,,,,['2'],[4.259026799816638],,,,,,,,9,001,F,2023_Feb_22_1243,student_TT_local,2021.1.4,48.021006343742876,
,None,None,None,None,None,None,None,None,None,None,goblet,botany,19.5,20.5,video&audio/Sentence4_touch_edited.mp4,video&audio/trench_touch_edited.mp4,ethnic,trench,None,,,,,,,,,,,,,,,,,,,,,,,,,,,,,,,,,,,,,,,,,,,,,,,,,,,,,,,,,,,0,0,0,27,,,,,,,,,,,,,,,,None,"['b', 'u', 't', 't', 'e', 'r', 'return']","[1.2155532999895513, 1.2871962999925017, 1.5270690000616014, 1.655167100019753, 1.8232107001822442, 1.9672034999821335, 2.119312500115484]",,,,,,,,,,,,,,,,,,,,,None,None, trench,"['t', 'r', 'e', 'n', 'c', 'h', 'return']","[0.6483271000906825, 1.096337600145489, 1.2722766001243144, 1.440314400009811, 1.544348900206387, 1.600604800041765, 2.112269200151786]",,,9,001,F,2023_Feb_22_1243,student_TT_local,2021.1.4,48.021006343742876,
,None,None,None,None,None,None,None,None,None,None,fodder,devise,19.5,20.5,video&audio/Sentence1_touch_edited.mp4,video&audio/mangle_touch_edited.mp4,warble,mangle,None,,,,,,,,,,,,,,,,,,,,,,,,,,,,,,,,,,,,,,,,,,,,,,,,,,,,,,,,,,,0,1,1,24,,,,,,,,,,,,,,,,None,,,,,,,,,,,,,,,,,,,,,,,,None, mangle,"['m', 'a', 'n', 'l', 'g', 'l', 'e', 'return']","[0.6484224000014365, 0.7606690998654813, 0.8727964998688549, 1.1527199998963624, 1.7846152998972684, 1.9285476000513881, 2.0326813999563456, 2.7688954998739064]",,,9,001,F,2023_Feb_22_1243,student_TT_local,2021.1.4,48.021006343742876,
,None,None,None,None,None,None,None,None,None,None,savant,cervix,19.5,20.5,video&audio/Sentence2_touch_edited.mp4,video&audio/cobble_touch_edited.mp4,export,cobble,None,,,,,,,,,,,,,,,,,,,,,,,,,,,,,,,,,,,,,,,,,,,,,,,,,,,,,,,,,,,0,2,2,19,,,,,,,,,,,,,,,,None,,,,,,,,,,,,,,,,,,,,,,,,None, cobble,"['c', 'o', 'b', 'b', 'l', 'e', 'return']","[0.7118602998089045, 0.8558439998887479, 1.0879332998301834, 1.1918331999331713, 1.3358137998729944, 1.4401059998199344, 1.688132399925962]",,,9,001,F,2023_Feb_22_1243,student_TT_local,2021.1.4,48.021006343742876,
,None,None,None,None,None,None,None,None,None,None,quarry,covert,6.5,7.5,video&audio/sentence6_TT_3X.mp4,video&audio/patent_TT_3X.mp4,defame,patent,None,,,,,,,,,,,,,,,,,,,,,,,,,,,,,,,,,,,,,,,,,,,,,,,,,,,,,,,,,,,0,3,3,11,,,,,,,,,,,,,,,,None,,,,,,,,,,,,,,,,,,,,,,,,None, patent,"['p', 'a', 't', 'w', 'backspace', 'e', 'n', 't', 'return']","[0.671695499913767, 0.7756527999881655, 1.0557614997960627, 1.2636355999857187, 1.919568299781531, 2.0797205998096615, 2.2236844999715686, 2.263660999946296, 2.63969219988212]",,,9,001,F,2023_Feb_22_1243,student_TT_local,2021.1.4,48.021006343742876,
,"While you watch the video, imagine yourself typing the word on the screen, like how you did in the imagery practice. While you watch the video and imagine this, rest your hands on your keyboard but DO NOT type until AFTER you see the typing prompt.

Press 'enter/return' to go to the next page.","While watching the video, imagine yourself typing the word on the screen, like how you did in the imagery practice. While you watch the video and imagine this, rest your hands on your keyboard but DO NOT type until AFTER you see the typing prompt.

Press 'enter/return' to go to the next page.",video&audio/Example_AOMI_imagine.png,1.6,1,butter,6.5,7.5,video&audio/amount_TT_3X.mp4,video&audio/butter_TT_3X.mp4,plight,ascend,6.5,7.5,video&audio/sentence2_TT_3X.mp4,video&audio/metric_TT_3X.mp4,eatery,metric,2 = AOMIspec,,,,,,,,,,,,,,,,,,,,,,,,,,,,,,,,,,,,,,,,,,,,,,,,,,,,,,,,,,,0,4,4,1,,,,,,,,,,,,,,,,None,,,,,,,,,,,,,,,,,,,,,,,,None, metric,"['m', 'e', 't', 'r', 'i', 'c', 'return']","[0.7354594999924302, 0.8629389998968691, 1.063077700091526, 1.2152136000804603, 1.3431492000818253, 1.4233120998833328, 1.911050499882549]",,,9,001,F,2023_Feb_22_1243,student_TT_local,2021.1.4,48.021006343742876,
,None,None,None,None,None,None,None,None,None,None,musket,subtle,19.5,20.5,video&audio/Sentence5_touch_edited.mp4,video&audio/fungal_touch_edited.mp4,mucous,fungal,None,,,,,,,,,,,,,,,,,,,,,,,,,,,,,,,,,,,,,,,,,,,,,,,,,,,,,,,,,,,0,5,5,22,,,,,,,,,,,,,,,,None,,,,,,,,,,,,,,,,,,,,,,,,None, fungal,"['f', 'u', 'n', 'g', 'a', 'l', 'return']","[0.44122270005755126, 0.7056509000249207, 0.8095606998540461, 0.9371692999266088, 1.2495158000383526, 1.401290399953723, 1.7376172000076622]",,,9,001,F,2023_Feb_22_1243,student_TT_local,2021.1.4,48.021006343742876,
,None,None,None,None,None,None,None,None,None,None,brazen,piston,19.5,20.5,video&audio/Sentence3_touch_edited.mp4,video&audio/caviar_touch_edited.mp4,shrill,caviar,None,,,,,,,,,,,,,,,,,,,,,,,,,,,,,,,,,,,,,,,,,,,,,,,,,,,,,,,,,,,0,6,6,20,,,,,,,,,,,,,,,,None,,,,,,,,,,,,,,,,,,,,,,,,None, caviar,"['c', 'a', 'v', 'i', 'a', 'r', 'return']","[0.5259637001436204, 0.6859224000945687, 0.958223800174892, 1.1178774000145495, 1.2139389000367373, 1.4299262000713497, 1.5740575001109391]",,,9,001,F,2023_Feb_22_1243,student_TT_local,2021.1.4,48.021006343742876,
,None,None,None,None,None,None,None,None,None,None,potent,neural,6.5,7.5,video&audio/sentence2_TT_3X.mp4,video&audio/septic_TT_3X.mp4,ordain,septic,None,,,,,,,,,,,,,,,,,,,,,,,,,,,,,,,,,,,,,,,,,,,,,,,,,,,,,,,,,,,0,7,7,13,,,,,,,,,,,,,,,,None,,,,,,,,,,,,,,,,,,,,,,,,None, septic,"['s', 'e', 'p', 't', 'i', 'c', 'return']","[0.6241285998839885, 0.832167400047183, 0.936303700087592, 1.0643609000835568, 1.1921466998755932, 1.3444014999549836, 1.784131099935621]",,,9,001,F,2023_Feb_22_1243,student_TT_local,2021.1.4,48.021006343742876,
,None,None,None,None,None,None,None,None,None,None,legion,subdue,19.5,20.5,video&audio/Sentence3_touch_edited.mp4,video&audio/feudal_touch_edited.mp4,matron,feudal,None,,,,,,,,,,,,,,,,,,,,,,,,,,,,,,,,,,,,,,,,,,,,,,,,,,,,,,,,,,,0,8,8,26,,,,,,,,,,,,,,,,None,,,,,,,,,,,,,,,,,,,,,,,,None, feudal,"['f', 'e', 'u', 'd', 'a', 'l', 'return']","[0.49004970001988113, 0.5058509998489171, 1.2661882999818772, 1.4260096999350935, 1.6259105999488384, 1.7142721998970956, 2.001885599922389]",,,9,001,F,2023_Feb_22_1243,student_TT_local,2021.1.4,48.021006343742876,
,None,None,None,None,None,None,None,None,None,None,revolt,virile,6.5,7.5,video&audio/sentence6_TT_3X.mp4,video&audio/joiner_TT_3X.mp4,apathy,joiner,None,,,,,,,,,,,,,,,,,,,,,,,,,,,,,,,,,,,,,,,,,,,,,,,,,,,,,,,,,,,0,9,9,5,,,,,,,,,,,,,,,,None,,,,,,,,,,,,,,,,,,,,,,,,None, joiner,"['j', 'o', 'i', 'n', 'e', 'r', 'return']","[0.4052873000036925, 0.5900354001205415, 0.9256484000943601, 1.0297260000370443, 1.1333125000819564, 1.2458023999352008, 1.7976313000544906]",,,9,001,F,2023_Feb_22_1243,student_TT_local,2021.1.4,48.021006343742876,
,None,None,None,None,None,None,None,None,None,None,strife,tariff,6.5,7.5,video&audio/sentence2_TT_3X.mp4,video&audio/delude_TT_3X.mp4,galley,delude,None,,,,,,,,,,,,,,,,,,,,,,,,,,,,,,,,,,,,,,,,,,,,,,,,,,,,,,,,,,,0,10,10,7,,,,,,,,,,,,,,,,None,,,,,,,,,,,,,,,,,,,,,,,,None, delude,"['d', 'e', 'l', 'u', 'd', 'e', 'return']","[0.6536870000418276, 0.8377557001076639, 0.9417069000191987, 1.1496557001955807, 1.245940500171855, 1.3897208000998944, 1.5097098001278937]",,,9,001,F,2023_Feb_22_1243,student_TT_local,2021.1.4,48.021006343742876,
,None,None,None,None,None,None,None,None,None,None,upkeep,kipper,19.5,20.5,video&audio/Sentence2_touch_edited.mp4,video&audio/meddle_touch_edited.mp4,divert,meddle,None,,,,,,,,,,,,,,,,,,,,,,,,,,,,,,,,,,,,,,,,,,,,,,,,,,,,,,,,,,,0,11,11,25,,,,,,,,,,,,,,,,None,,,,,,,,,,,,,,,,,,,,,,,,None, meddle,"['m', 'e', 'd', 'd', 'l', 'e', 'return']","[0.786688799969852, 0.9232457999605685, 1.131192599888891, 1.274637599941343, 1.338642300106585, 1.426955800037831, 1.6988389000762254]",,,9,001,F,2023_Feb_22_1243,student_TT_local,2021.1.4,48.021006343742876,
,None,None,None,None,None,None,None,None,None,None,satire,cortex,19.5,20.5,video&audio/Sentence4_touch_edited.mp4,video&audio/induce_touch_edited.mp4,mussel,induce,None,,,,,,,,,,,,,,,,,,,,,,,,,,,,,,,,,,,,,,,,,,,,,,,,,,,,,,,,,,,0,12,12,21,,,,,,,,,,,,,,,,None,,,,,,,,,,,,,,,,,,,,,,,,None, induce,"['i', 'n', 'd', 'u', 'c', 'e', 'return']","[0.8235917000565678, 0.9194398000836372, 1.055770100094378, 1.1433429999742657, 1.263570300070569, 1.471677100053057, 1.615627400111407]",,,9,001,F,2023_Feb_22_1243,student_TT_local,2021.1.4,48.021006343742876,
,None,None,None,None,None,None,None,None,None,None,infirm,pulpit,6.5,7.5,video&audio/sentence4_TT_3X.mp4,video&audio/oblige_TT_3X.mp4,mystic,oblige,None,,,,,,,,,,,,,,,,,,,,,,,,,,,,,,,,,,,,,,,,,,,,,,,,,,,,,,,,,,,0,13,13,3,,,,,,,,,,,,,,,,None,,,,,,,,,,,,,,,,,,,,,,,,None, oblige,"['o', 'b', 'l', 'i', 'g', 'e', 'return']","[0.7441450001206249, 0.9600581999402493, 1.2004048000089824, 1.368169300025329, 1.7841603001579642, 2.2400066000409424, 2.4401217999402434]",,,9,001,F,2023_Feb_22_1243,student_TT_local,2021.1.4,48.021006343742876,
,None,None,None,None,None,None,None,None,None,None,murmur,ritual,19.5,20.5,video&audio/Sentence6_touch_edited.mp4,video&audio/clergy_touch_edited.mp4,portal,clergy,None,,,,,,,,,,,,,,,,,,,,,,,,,,,,,,,,,,,,,,,,,,,,,,,,,,,,,,,,,,,0,14,14,17,,,,,,,,,,,,,,,,None,,,,,,,,,,,,,,,,,,,,,,,,None, clergy,"['c', 'l', 'e', 'r', 'g', 'y', 'return']","[0.5748912999406457, 0.6789114000275731, 0.8788922999519855, 1.0388404000550508, 1.2629052000120282, 1.358809099998325, 1.6632580999284983]",,,9,001,F,2023_Feb_22_1243,student_TT_local,2021.1.4,48.021006343742876,
,None,None,None,None,None,None,None,None,None,None,coerce,falter,19.5,20.5,video&audio/Sentence4_touch_edited.mp4,video&audio/tandem_touch_edited.mp4,origin,tandem,None,,,,,,,,,,,,,,,,,,,,,,,,,,,,,,,,,,,,,,,,,,,,,,,,,,,,,,,,,,,0,15,15,15,,,,,,,,,,,,,,,,None,,,,,,,,,,,,,,,,,,,,,,,,None, tandem,"['t', 'a', 'n', 'd', 'e', 'm', 'return']","[0.6355368001386523, 1.0201713999267668, 1.3156014000996947, 1.4112357001286, 1.5795386000536382, 1.659270599950105, 2.1712599999736995]",,,9,001,F,2023_Feb_22_1243,student_TT_local,2021.1.4,48.021006343742876,
,None,None,None,None,None,None,None,None,None,None,parole,solemn,6.5,7.5,video&audio/sentence3_TT_3X.mp4,video&audio/befall_TT_3X.mp4,ration,befall,None,,,,,,,,,,,,,,,,,,,,,,,,,,,,,,,,,,,,,,,,,,,,,,,,,,,,,,,,,,,0,16,16,8,,,,,,,,,,,,,,,,None,,,,,,,,,,,,,,,,,,,,,,,,None, befall,"['b', 'e', 'f', 'a', 'l', 'l', 'return']","[1.1220331001095474, 1.2901218999177217, 1.4416368000674993, 1.6578341000713408, 1.7701215001288801, 1.8824551000725478, 2.129762399941683]",,,9,001,F,2023_Feb_22_1243,student_TT_local,2021.1.4,48.021006343742876,
,None,None,None,None,None,None,None,None,None,None,deduct,hippie,6.5,7.5,video&audio/sentence3_TT_3X.mp4,video&audio/hearth_TT_3X.mp4,herbal,hearth,None,,,,,,,,,,,,,,,,,,,,,,,,,,,,,,,,,,,,,,,,,,,,,,,,,,,,,,,,,,,0,17,17,14,,,,,,,,,,,,,,,,None,,,,,,,,,,,,,,,,,,,,,,,,None, hearth,"['h', 'e', 'a', 'r', 't', 'h', 'return']","[0.6646117998752743, 0.8005766998976469, 1.0084855000022799, 1.2889055998530239, 1.4647911998908967, 1.5525768999941647, 2.0245858998969197]",,,9,001,F,2023_Feb_22_1243,student_TT_local,2021.1.4,48.021006343742876,
,"Remember to type as QUICKLY and ACCURATELY as possible after the 'get ready' prompt.

Ask the experimenter any questions now. Please put on the headphones.

You will get one practice trial. Press 'enter/return' when you are ready to start the practice.","Remember to type as QUICKLY and ACCURATELY as you can after the 'get ready' prompt.

Ask the experimenter any questions now. Please put on the headphones.

You will get one practice trial. Press 'enter/return' when you are ready to start the practice.",video&audio/Example_AOMI_total.png,1.8,0.7,None,None,None,None,None,jargon,frugal,6.5,7.5,video&audio/sentence3_TT_3X.mp4,video&audio/oppose_TT_3X.mp4,ghetto,oppose,None,,,,,,,,,,,,,,,,,,,,,,,,,,,,,,,,,,,,,,,,,,,,,,,,,,,,,,,,,,,0,18,18,2,,,,,,,,,,,,,,,,None,,,,,,,,,,,,,,,,,,,,,,,,None, oppose,"['o', 'p', 'p', 'o', 's', 'e', 'return']","[0.7302627998869866, 0.9701194998342544, 1.1380439999047667, 1.2422448999714106, 1.3862631998490542, 1.649951099883765, 1.770600999938324]",,,9,001,F,2023_Feb_22_1243,student_TT_local,2021.1.4,48.021006343742876,
,None,None,None,None,None,None,None,None,None,None,impose,belfry,19.5,20.5,video&audio/Sentence6_touch_edited.mp4,video&audio/girdle_touch_edited.mp4,linear,girdle,None,,,,,,,,,,,,,,,,,,,,,,,,,,,,,,,,,,,,,,,,,,,,,,,,,,,,,,,,,,,0,19,19,23,,,,,,,,,,,,,,,,None,,,,,,,,,,,,,,,,,,,,,,,,None, girdle,"['g', 'i', 'r', 'd', 'l', 'e', 'return']","[0.7166889000218362, 0.8524221000261605, 0.9725807001814246, 1.2048883000388741, 1.3326095000375062, 1.4205159000121057, 1.75714570004493]",,,9,001,F,2023_Feb_22_1243,student_TT_local,2021.1.4,48.021006343742876,
,None,None,None,None,None,None,None,None,None,None,sherry,jackal,6.5,7.5,video&audio/sentence4_TT_3X.mp4,video&audio/hamlet_TT_3X.mp4,shroud,hamlet,None,,,,,,,,,,,,,,,,,,,,,,,,,,,,,,,,,,,,,,,,,,,,,,,,,,,,,,,,,,,0,20,20,9,,,,,,,,,,,,,,,,None,,,,,,,,,,,,,,,,,,,,,,,,None, hamlet,"['h', 'a', 'm', 'l', 'e', 't', 'return']","[0.5840863999910653, 0.7202560999430716, 0.9122809998225421, 0.944156999932602, 1.0561098998878151, 1.240019500022754, 1.3843847999814898]",,,9,001,F,2023_Feb_22_1243,student_TT_local,2021.1.4,48.021006343742876,
,None,None,None,None,None,None,None,None,None,None,mirage,malady,6.5,7.5,video&audio/sentence1_TT_3X.mp4,video&audio/shrewd_TT_3X.mp4,revoke,shrewd,None,,,,,,,,,,,,,,,,,,,,,,,,,,,,,,,,,,,,,,,,,,,,,,,,,,,,,,,,,,,0,21,21,6,,,,,,,,,,,,,,,,None,,,,,,,,,,,,,,,,,,,,,,,,None, shrewd,"['s', 'h', 'r', 'w', 'e', 'd', 'backspace', 'backspace', 'backspace', 'e', 'w', 'd', 'return']","[0.6572267999872565, 1.4729703001212329, 1.7611233000643551, 2.0332263000309467, 2.185753900092095, 2.41714769997634, 2.9370862001087517, 3.0890941999386996, 3.2172636999748647, 3.5769965001381934, 3.8332046000286937, 4.241130399983376, 4.833078500116244]",,,9,001,F,2023_Feb_22_1243,student_TT_local,2021.1.4,48.021006343742876,
,None,None,None,None,None,None,None,None,None,None,critic,obsess,6.5,7.5,video&audio/sentence5_TT_3X.mp4,video&audio/zephyr_TT_3X.mp4,fusion,zephyr,None,,,,,,,,,,,,,,,,,,,,,,,,,,,,,,,,,,,,,,,,,,,,,,,,,,,,,,,,,,,0,22,22,10,,,,,,,,,,,,,,,,None,,,,,,,,,,,,,,,,,,,,,,,,None, zephyr,"['z', 'e', 'p', 'h', 'y', 'r', 'return']","[1.4014974001329392, 1.6415266001131386, 1.7856221001129597, 2.105724200140685, 2.273592700017616, 2.3696543001569808, 2.929762199986726]",,,9,001,F,2023_Feb_22_1243,student_TT_local,2021.1.4,48.021006343742876,
,None,None,None,None,None,None,None,None,None,None,pursue,debtor,19.5,20.5,video&audio/Sentence1_touch_edited.mp4,video&audio/output_touch_edited.mp4,uphold,output,None,,,,,,,,,,,,,,,,,,,,,,,,,,,,,,,,,,,,,,,,,,,,,,,,,,,,,,,,,,,0,23,23,18,,,,,,,,,,,,,,,,None,,,,,,,,,,,,,,,,,,,,,,,,None, output,"['o', 'u', 't', 'p', 'u', 't', 'return']","[0.8856936998199672, 1.0056755000259727, 1.1656741998158395, 1.2935754999052733, 1.4135988999623805, 1.5016453999560326, 2.1736500000115484]",,,9,001,F,2023_Feb_22_1243,student_TT_local,2021.1.4,48.021006343742876,
,None,None,None,None,None,None,None,None,None,None,manure,picket,19.5,20.5,video&audio/Sentence5_touch_edited.mp4,video&audio/parish_touch_edited.mp4,gullet,parish,None,,,,,,,,,,,,,,,,,,,,,,,,,,,,,,,,,,,,,,,,,,,,,,,,,,,,,,,,,,,0,24,24,28,,,,,,,,,,,,,,,,None,,,,,,,,,,,,,,,,,,,,,,,,None, parish,"['p', 'a', 'r', 'i', 'h', 's', 'backspace', 'backspace', 's', 'h', 'return']","[1.4063808000646532, 1.5181352000217885, 1.750213999999687, 2.518136499915272, 2.662600399926305, 2.694318500114605, 3.3260914999991655, 3.454373100074008, 3.582068799994886, 3.8303507999517024, 4.078274700092152]",,,9,001,F,2023_Feb_22_1243,student_TT_local,2021.1.4,48.021006343742876,
,None,None,None,None,None,None,None,None,None,None,novice,parcel,6.5,7.5,video&audio/sentence5_TT_3X.mp4,video&audio/primal_TT_3X.mp4,entail,primal,None,,,,,,,,,,,,,,,,,,,,,,,,,,,,,,,,,,,,,,,,,,,,,,,,,,,,,,,,,,,0,25,25,4,,,,,,,,,,,,,,,,None,,,,,,,,,,,,,,,,,,,,,,,,None, primal,"['p', 'r', 'i', 'm', 'a', 'l', 'return']","[0.6813227999955416, 0.8417297000996768, 0.9613086001481861, 1.1374097000807524, 1.2414751001633704, 1.929545400198549, 2.1292857001535594]",,,9,001,F,2023_Feb_22_1243,student_TT_local,2021.1.4,48.021006343742876,
,None,None,None,None,None,None,None,None,None,None,convoy,plasma,19.5,20.5,video&audio/Sentence5_touch_edited.mp4,video&audio/jailer_touch_edited.mp4,nettle,jailer,None,,,,,,,,,,,,,,,,,,,,,,,,,,,,,,,,,,,,,,,,,,,,,,,,,,,,,,,,,,,0,26,26,16,,,,,,,,,,,,,,,,None,,,,,,,,,,,,,,,,,,,,,,,,None, jailer,"['j', 'a', 'i', 'l', 'e', 'r', 'return']","[0.7144200000911951, 0.8257482999470085, 0.9938842998817563, 1.217621099902317, 1.3300395999103785, 1.4341710999142379, 1.585727500030771]",,,9,001,F,2023_Feb_22_1243,student_TT_local,2021.1.4,48.021006343742876,
,None,None,None,None,None,None,None,None,None,None,sonnet,confer,6.5,7.5,video&audio/sentence1_TT_3X.mp4,video&audio/innate_TT_3X.mp4,tamper,innate,None,,,,,,,,,,,,,,,,,,,,,,,,,,,,,,,,,,,,,,,,,,,,,,,,,,,,,,,,,,,0,27,27,12,,,,,,,,,,,,,,,,None,,,,,,,,,,,,,,,,,,,,,,,,None, innate,"['i', 'n', 'n', 'a', 't', 'e', 'return']","[0.6771817000117153, 0.821342300157994, 0.9655739001464099, 1.1090115001425147, 1.2769798000808805, 1.404893800150603, 1.6289973000530154]",,,9,001,F,2023_Feb_22_1243,student_TT_local,2021.1.4,48.021006343742876,
,"This is Section 2.

In this section, your task will be the same as before - that is, to type the word you see on the screen AFTER the typing prompt. However, rather than just seeing the word before typing, you will also see a video of someone typing different words to what you will need to type at different speeds. 

Press 'enter/return' to go to the next page.","This is Section 4. 

In this section, your task will be the same as before - that is, to type the word you see on the screen after the typing prompt. You will see a video again, like in Section 2, only this time, the video will show someone the same word that you must type at different speeds. 

Press 'enter/return' to go to the next page.",video&audio/Example_AOMI_layout.png,1.6,0.6,afford,19.5,20.5,video&audio/amount_touch_edited.mp4,video&audio/afford_touch_edited.mp4,vanity,matrix,6.5,7.5,video&audio/sentence1_TT_3X.mp4,video&audio/hinder_TT_3X.mp4,breach,hinder,1 = AOMIgen,,,,,,,,,,,,,,,,,,,,,,,,,,,,,,,,,,,,,,,,,,,,,,,,,,,,,,,,,,,0,28,28,0,,,,,,,,,,,,,,,,None,,,,,,,,,,,,,,,,,,,,,,,,None, hinder,"['h', 'i', 'n', 'd', 'e', 'r', 'return']","[0.7135405000299215, 0.8895124001428485, 0.9774430000688881, 1.129668700043112, 1.345523800002411, 1.4656859000679106, 1.601649000076577]",,,9,001,F,2023_Feb_22_1243,student_TT_local,2021.1.4,48.021006343742876,
,None,None,None,None,None,None,None,None,None,None,binder,forage,19.5,20.5,video&audio/Sentence6_touch_edited.mp4,video&audio/campus_touch_edited.mp4,allure,campus,None,,,,,,,,,,,,,,,,,,,,,,,,,,,,,,,,,,,,,,,,,,,,,,,,,,,,,,,,,,,0,29,29,29,,,,,,,,,,,,,,,,None,,,,,,,,,,,,,,,,,,,,,,,,None, campus,"['c', 'a', 'm', 'p', 'u', 's', 'return']","[0.6240697000175714, 0.872553399996832, 0.9679173999466002, 1.1278482999186963, 1.3359290000516921, 1.4563615000806749, 1.632608100073412]",,,9,001,F,2023_Feb_22_1243,student_TT_local,2021.1.4,48.021006343742876,
,,,,,,,,,,,,,,,,,,,,typingRatingScale.png,"How would you rate your typing performance in the previous section?

Press a number on your keyboard according to the rating scale below to give your answer. Your first answer will be accepted.",,,,,,,,,,,,,,,,,,,,,,,,,,,,,,,,,,,,,,,,,,,,,,,,,,,,,,,,,,,,,0,0,0,0,,,,,,,,,,,,,,,,,,,,,,,,,,,,,,,,,,,,,,,,['5'],[3.1320575000718236],9,001,F,2023_Feb_22_1243,student_TT_local,2021.1.4,48.021006343742876,
,,,,,,,,,,,,,,,,,,,,visualImageryScale.png,"While imagining yourself typing, how clear was your visual image?

Press a number on your keyboard according to the rating scale below to give your answer. Your first answer will be accepted.",,,,,,,,,,,,,,,,,,,,,,,,,,,,,,,,,,,,,,,,,,,,,,,,,,,,,,,,,,,,,0,1,1,1,,,,,,,,,,,,,,,,,,,,,,,,,,,,,,,,,,,,,,,,['5'],[3.9053563000634313],9,001,F,2023_Feb_22_1243,student_TT_local,2021.1.4,48.021006343742876,
,,,,,,,,,,,,,,,,,,,,kinestheticImageryScale.png,"While imagining yourself typing, how intense were the sensations associated with the imagined movement?

Press a number on your keyboard according to the rating scale below to give your answer. Your first answer will be accepted.",,,,,,,,,,,,,,,,,,,,,,,,,,,,,,,,,,,,,,,,,,,,,,,,,,,,,,,,,,,,,0,2,2,2,,,,,,,,,,,,,,,,,,,,,,,,,,,,,,,,,,,,,,,,['4'],[3.395295799942687],9,001,F,2023_Feb_22_1243,student_TT_local,2021.1.4,48.021006343742876,
