instructLoop.thisRepN,instructLoop.thisTrialN,instructLoop.thisN,instructLoop.thisIndex,instructLoop.ran,begInstruct,participant,session,group,date,expName,psychopyVersion,OS,frameRate,pracBkgdKeys.keys,pracKeys.keys,pracKeys.rt,practice_control.thisRepN,practice_control.thisTrialN,practice_control.thisN,practice_control.thisIndex,practice_control.ran,pracWords,baseBkgdKeys.keys,base_typedWord,baseKeys.keys,baseKeys.rt,trials_1.thisRepN,trials_1.thisTrialN,trials_1.thisN,trials_1.thisIndex,trials_1.ran,instr_1,instr_2,practiceWords,pracVid,baseline_words,control_words,first_vids,second_vids,AOMIfirst_words,AOMIsecond_words,Order,baseBkgdKeys.rt,baseRateTypeKey.keys,baseRateTypeKey.rt,baseRateLoop.thisRepN,baseRateLoop.thisTrialN,baseRateLoop.thisN,baseRateLoop.thisIndex,baseRateLoop.ran,ratingScale,rateInstr,AOMI1_BkgdKeys.keys,AOMI_promptBkgdKeys.keys,AOMI1pracKeys.keys,AOMI1pracKeys.rt,AOMIpracLoop.thisRepN,AOMIpracLoop.thisTrialN,AOMIpracLoop.thisN,AOMIpracLoop.thisIndex,AOMIpracLoop.ran,AOMI1bkdgKeys.keys,AOMI1_typedWord,AOMI1keys.keys,AOMI1keys.rt,trials_2.thisRepN,trials_2.thisTrialN,trials_2.thisN,trials_2.thisIndex,trials_2.ran,AOMI1rateTypeKey.keys,AOMI1rateTypeKey.rt,AOMI1rateLoop.thisRepN,AOMI1rateLoop.thisTrialN,AOMI1rateLoop.thisN,AOMI1rateLoop.thisIndex,AOMI1rateLoop.ran,contBkgdKeys.keys,cont_typedWord,contKeys.keys,contKeys.rt,trials_3.thisRepN,trials_3.thisTrialN,trials_3.thisN,trials_3.thisIndex,trials_3.ran,contBkgdKeys.rt,contTypeKey.keys,contTypeKey.rt,contRateLoop.thisRepN,contRateLoop.thisTrialN,contRateLoop.thisN,contRateLoop.thisIndex,contRateLoop.ran,bkgdkeys_prac2.keys,AOMIpracLoop2.thisRepN,AOMIpracLoop2.thisTrialN,AOMIpracLoop2.thisN,AOMIpracLoop2.thisIndex,AOMIpracLoop2.ran,bkgdKeys4.keys,AOMI2_typedWord,keyboardCom4.keys,keyboardCom4.rt,trials_4.thisRepN,trials_4.thisTrialN,trials_4.thisN,trials_4.thisIndex,trials_4.ran,AOMI_promptBkgdKeys.rt,AOMI2typeKey.keys,AOMI2typeKey.rt,AOMI2rateLoop.thisRepN,AOMI2rateLoop.thisTrialN,AOMI2rateLoop.thisN,AOMI2rateLoop.thisIndex,AOMI2rateLoop.ran
0,0,0,0,1,"In this experiment, your task will be to type the word that you see on the screen. 

You will see a word for a couple of seconds with a cross. After this you will see ‘Get ready!' appear. This is your prompt to get ready to type.

You will then see the same word on the screen. This is when you should start to type. Type the word as QUICKLY and ACCURATELY as you can. By this we mean, not so fast that you lose accuracy, but also not so accurate that you type very slowly. Try to find a middle ground between the two.

Once you have typed the word, press 'enter/return' to submit it. The next word will be displayed immediately.

Press 'enter/return' to go to the next page.",49,001,H,2022-03-31_15h28.42.751,studentExpTT_allGroups_v2,2021.1.4,MacIntel,60.0024001,,,,,,,,,,,,,,,,,,,,,,,,,,,,,,,,,,,,,,,,,,,,,,,,,,,,,,,,,,,,,,,,,,,,,,,,,,,,,,,,,,,,,,,,,,,,,,,,,,,,,,,,
0,1,1,1,1,"If you make any errors, you can correct these by pressing ‘backspace’ on your keyboard before pressing ‘enter’ - just like if you were typing normally on your computer. Errors are normal so please don’t worry about this. Just try to be as accurate as you can. 

You will have a practice round to get used to the task. Ask the experimenter any questions you have now.

Press 'enter/return' to start the practice when you are ready. ",49,001,H,2022-03-31_15h28.42.751,studentExpTT_allGroups_v2,2021.1.4,MacIntel,60.0024001,,,,,,,,,,,,,,,,,,,,,,,,,,,,,,,,,,,,,,,,,,,,,,,,,,,,,,,,,,,,,,,,,,,,,,,,,,,,,,,,,,,,,,,,,,,,,,,,,,,,,,,,
0,2,2,2,1,"This is the practice round. 

Press 'enter/return' to start.",49,001,H,2022-03-31_15h28.42.751,studentExpTT_allGroups_v2,2021.1.4,MacIntel,60.0024001,,,,,,,,,,,,,,,,,,,,,,,,,,,,,,,,,,,,,,,,,,,,,,,,,,,,,,,,,,,,,,,,,,,,,,,,,,,,,,,,,,,,,,,,,,,,,,,,,,,,,,,,
,,,,,,49,001,H,2022-03-31_15h28.42.751,studentExpTT_allGroups_v2,2021.1.4,MacIntel,60.0024001,,"[""r"",""e"",""p"",""l"",""a"",""y"",""return""]","[1.0141000000238591,1.1161000000238346,1.2770000000000437,1.9861000000238391,2.2902000000477756,2.4416000000238682,2.749100000023873]",0,0,0,1,1,replay,,,,,,,,,,,,,,,,,,,,,,,,,,,,,,,,,,,,,,,,,,,,,,,,,,,,,,,,,,,,,,,,,,,,,,,,,,,,,,,,,,,,,,,,,,,,,,,
,,,,,,49,001,H,2022-03-31_15h28.42.751,studentExpTT_allGroups_v2,2021.1.4,MacIntel,60.0024001,,"[""h"",""e"",""i"",""g"",""h"",""t"",""return""]","[0.6813999999760654,0.7851000000238173,0.9136999999284399,1.1846000000238064,1.3012999999523345,1.4506999999284744,1.6299999999999955]",0,1,1,0,1,height,,,,,,,,,,,,,,,,,,,,,,,,,,,,,,,,,,,,,,,,,,,,,,,,,,,,,,,,,,,,,,,,,,,,,,,,,,,,,,,,,,,,,,,,,,,,,,,
,,,,,,49,001,H,2022-03-31_15h28.42.751,studentExpTT_allGroups_v2,2021.1.4,MacIntel,60.0024001,,"[""u"",""p"",""d"",""a"",""t"",""e"",""return""]","[0.6214999999999691,0.7664999999999509,1.3879000000953283,1.4648000000714774,1.5974999999999682,1.9493000000715028,2.1642000000476855]",0,2,2,2,1,update,,,,,,,,,,,,,,,,,,,,,,,,,,,,,,,,,,,,,,,,,,,,,,,,,,,,,,,,,,,,,,,,,,,,,,,,,,,,,,,,,,,,,,,,,,,,,,,
,,,,,,49,001,H,2022-03-31_15h28.42.751,studentExpTT_allGroups_v2,2021.1.4,MacIntel,60.0024001,,,,,,,,,,, jargon,"[""j"",""a"",""r"",""g"",""o"",""n"",""return""]","[0.44910000002380457,0.5322000000477374,1.0322000000477374,1.1993000000715028,1.3891000000238591,1.5988999999761973,1.7493999999761627]",0,0,0,2,1,"This is Section 2.

In this section, your task will be the same as before - that is, to type the word you see on the screen AFTER the typing prompt. However, rather than just seeing the word before typing, you will also see a video of someone typing different words to what you will need to type. 

While you watch the video, imagine yourself typing the word on the screen. Imagine how it would LOOK to see your hands typing the word, as well as how it would FEEL to type it yourself. Think about the muscles moving in your hands and the feel of your fingers pressing the keys. While you watch the video and imagine this, rest your hands on your keyboard but DO NOT type until AFTER you see the typing prompt.

Remember to type as QUICKLY and ACCURATELY as possible

Ask the experimenter any questions now.

You will get one practice trial. Press 'enter/return' when you are ready to start the practice.","This is Section 4. 

In this section, your task will be the same as before - that is, to type the word you see on the screen AFTER the typing prompt. You will see a video again, like in Section 2, only this time, the video will show someone typing the same word that you will need to type.

While watching the video, imagine yourself typing the word on the screen.  Imagine how it would LOOK to see your hands typing the word, as well as how it would FEEL to type it yourself. Think about the muscles moving in your hands and the feel of your fingers pressing the keys. While you watch the video and imagine this, rest your hands on your keyboard but DO NOT type until AFTER you see the typing prompt.

Remember to type as QUICKLY and ACCURATELY as you can.

Ask the experimenter any questions now.

You will get one practice trial. Press 'enter/return' when you are ready to start the practice.",,,jargon,oppose,video&audio/Sentence3_touch_edited.mp4,video&audio/frugal_touch_edited.mp4,ghetto,frugal,,,,,,,,,,,,,,,,,,,,,,,,,,,,,,,,,,,,,,,,,,,,,,,,,,,,,,,,,,,,,,,,,,,,,,,,,,,,
,,,,,,49,001,H,2022-03-31_15h28.42.751,studentExpTT_allGroups_v2,2021.1.4,MacIntel,60.0024001,,,,,,,,,,, sherry,"[""s"",""h"",""e"",""r"",""r"",""y"",""return""]","[0.5145999999045898,0.635799999952269,0.7845999999045716,1.0489999999999782,1.3288999999761018,1.82939999997609,1.9795999999046217]",0,1,1,10,1,"This is Section 2.

In this section, your task will be the same as before - that is, to type the word you see on the screen AFTER the typing prompt. However, rather than just seeing the word before typing, you will also see a video of someone typing different words to what you will need to type. 

While you watch the video, imagine yourself typing the word on the screen. Imagine how it would LOOK to see your hands typing the word, as well as how it would FEEL to type it yourself. Think about the muscles moving in your hands and the feel of your fingers pressing the keys. While you watch the video and imagine this, rest your hands on your keyboard but DO NOT type until AFTER you see the typing prompt.

Remember to type as QUICKLY and ACCURATELY as possible

Ask the experimenter any questions now.

You will get one practice trial. Press 'enter/return' when you are ready to start the practice.","This is Section 4. 

In this section, your task will be the same as before - that is, to type the word you see on the screen AFTER the typing prompt. You will see a video again, like in Section 2, only this time, the video will show someone typing the same word that you will need to type.

While watching the video, imagine yourself typing the word on the screen.  Imagine how it would LOOK to see your hands typing the word, as well as how it would FEEL to type it yourself. Think about the muscles moving in your hands and the feel of your fingers pressing the keys. While you watch the video and imagine this, rest your hands on your keyboard but DO NOT type until AFTER you see the typing prompt.

Remember to type as QUICKLY and ACCURATELY as you can.

Ask the experimenter any questions now.

You will get one practice trial. Press 'enter/return' when you are ready to start the practice.",,,sherry,zephyr,video&audio/Sentence5_touch_edited.mp4,video&audio/obsess_touch_edited.mp4,fusion,obsess,,,,,,,,,,,,,,,,,,,,,,,,,,,,,,,,,,,,,,,,,,,,,,,,,,,,,,,,,,,,,,,,,,,,,,,,,,,,
,,,,,,49,001,H,2022-03-31_15h28.42.751,studentExpTT_allGroups_v2,2021.1.4,MacIntel,60.0024001,,,,,,,,,,, fodder,"[""f"",""o"",""d"",""d"",""e"",""r"",""return""]","[0.40020000004767553,0.5487000000476883,0.9221000000237609,1.10710000002382,1.2512000000476746,1.3982999999523145,1.7352000000475982]",0,2,2,27,1,"This is Section 2.

In this section, your task will be the same as before - that is, to type the word you see on the screen AFTER the typing prompt. However, rather than just seeing the word before typing, you will also see a video of someone typing different words to what you will need to type. 

While you watch the video, imagine yourself typing the word on the screen. Imagine how it would LOOK to see your hands typing the word, as well as how it would FEEL to type it yourself. Think about the muscles moving in your hands and the feel of your fingers pressing the keys. While you watch the video and imagine this, rest your hands on your keyboard but DO NOT type until AFTER you see the typing prompt.

Remember to type as QUICKLY and ACCURATELY as possible

Ask the experimenter any questions now.

You will get one practice trial. Press 'enter/return' when you are ready to start the practice.","This is Section 4. 

In this section, your task will be the same as before - that is, to type the word you see on the screen AFTER the typing prompt. You will see a video again, like in Section 2, only this time, the video will show someone typing the same word that you will need to type.

While watching the video, imagine yourself typing the word on the screen.  Imagine how it would LOOK to see your hands typing the word, as well as how it would FEEL to type it yourself. Think about the muscles moving in your hands and the feel of your fingers pressing the keys. While you watch the video and imagine this, rest your hands on your keyboard but DO NOT type until AFTER you see the typing prompt.

Remember to type as QUICKLY and ACCURATELY as you can.

Ask the experimenter any questions now.

You will get one practice trial. Press 'enter/return' when you are ready to start the practice.",,,fodder,trench,video&audio/Sentence4_touch_edited.mp4,video&audio/botany_touch_edited.mp4,ethnic,botany,,,,,,,,,,,,,,,,,,,,,,,,,,,,,,,,,,,,,,,,,,,,,,,,,,,,,,,,,,,,,,,,,,,,,,,,,,,,
,,,,,,49,001,H,2022-03-31_15h28.42.751,studentExpTT_allGroups_v2,2021.1.4,MacIntel,60.0024001,,,,,,,,,,, parole,"[""p"",""a"",""r"",""o"",""l"",""e"",""return""]","[0.6307000000476819,0.7976000000238628,1.0553000000714974,1.2066000000238546,1.3980000000000246,1.5235000000000127,1.6697000000476692]",0,3,3,9,1,"This is Section 2.

In this section, your task will be the same as before - that is, to type the word you see on the screen AFTER the typing prompt. However, rather than just seeing the word before typing, you will also see a video of someone typing different words to what you will need to type. 

While you watch the video, imagine yourself typing the word on the screen. Imagine how it would LOOK to see your hands typing the word, as well as how it would FEEL to type it yourself. Think about the muscles moving in your hands and the feel of your fingers pressing the keys. While you watch the video and imagine this, rest your hands on your keyboard but DO NOT type until AFTER you see the typing prompt.

Remember to type as QUICKLY and ACCURATELY as possible

Ask the experimenter any questions now.

You will get one practice trial. Press 'enter/return' when you are ready to start the practice.","This is Section 4. 

In this section, your task will be the same as before - that is, to type the word you see on the screen AFTER the typing prompt. You will see a video again, like in Section 2, only this time, the video will show someone typing the same word that you will need to type.

While watching the video, imagine yourself typing the word on the screen.  Imagine how it would LOOK to see your hands typing the word, as well as how it would FEEL to type it yourself. Think about the muscles moving in your hands and the feel of your fingers pressing the keys. While you watch the video and imagine this, rest your hands on your keyboard but DO NOT type until AFTER you see the typing prompt.

Remember to type as QUICKLY and ACCURATELY as you can.

Ask the experimenter any questions now.

You will get one practice trial. Press 'enter/return' when you are ready to start the practice.",,,parole,hamlet,video&audio/Sentence4_touch_edited.mp4,video&audio/jackal_touch_edited.mp4,shroud,jackal,,,,,,,,,,,,,,,,,,,,,,,,,,,,,,,,,,,,,,,,,,,,,,,,,,,,,,,,,,,,,,,,,,,,,,,,,,,,
,,,,,,49,001,H,2022-03-31_15h28.42.751,studentExpTT_allGroups_v2,2021.1.4,MacIntel,60.0024001,,,,,,,,,,, savant,"[""s"",""a"",""v"",""a"",""n"",""t"",""return""]","[0.4048999999761236,0.5294999999999845,0.9313000000714737,1.0121000000237927,1.228600000023789,1.4447000000476464,1.613200000047641]",0,4,4,21,1,"This is Section 2.

In this section, your task will be the same as before - that is, to type the word you see on the screen AFTER the typing prompt. However, rather than just seeing the word before typing, you will also see a video of someone typing different words to what you will need to type. 

While you watch the video, imagine yourself typing the word on the screen. Imagine how it would LOOK to see your hands typing the word, as well as how it would FEEL to type it yourself. Think about the muscles moving in your hands and the feel of your fingers pressing the keys. While you watch the video and imagine this, rest your hands on your keyboard but DO NOT type until AFTER you see the typing prompt.

Remember to type as QUICKLY and ACCURATELY as possible

Ask the experimenter any questions now.

You will get one practice trial. Press 'enter/return' when you are ready to start the practice.","This is Section 4. 

In this section, your task will be the same as before - that is, to type the word you see on the screen AFTER the typing prompt. You will see a video again, like in Section 2, only this time, the video will show someone typing the same word that you will need to type.

While watching the video, imagine yourself typing the word on the screen.  Imagine how it would LOOK to see your hands typing the word, as well as how it would FEEL to type it yourself. Think about the muscles moving in your hands and the feel of your fingers pressing the keys. While you watch the video and imagine this, rest your hands on your keyboard but DO NOT type until AFTER you see the typing prompt.

Remember to type as QUICKLY and ACCURATELY as you can.

Ask the experimenter any questions now.

You will get one practice trial. Press 'enter/return' when you are ready to start the practice.",,,savant,induce,video&audio/Sentence4_touch_edited.mp4,video&audio/cortex_touch_edited.mp4,mussel,cortex,,,,,,,,,,,,,,,,,,,,,,,,,,,,,,,,,,,,,,,,,,,,,,,,,,,,,,,,,,,,,,,,,,,,,,,,,,,,
,,,,,,49,001,H,2022-03-31_15h28.42.751,studentExpTT_allGroups_v2,2021.1.4,MacIntel,60.0024001,,,,,,,,,,, upkeep,"[""u"",""p"",""k"",""e"",""e"",""p"",""return""]","[0.45109999990461347,0.6133999999760817,1.0882999999522553,1.22199999999998,1.4157999999522417,1.5897999999523336,1.8327999999522717]",0,5,5,28,1,"This is Section 2.

In this section, your task will be the same as before - that is, to type the word you see on the screen AFTER the typing prompt. However, rather than just seeing the word before typing, you will also see a video of someone typing different words to what you will need to type. 

While you watch the video, imagine yourself typing the word on the screen. Imagine how it would LOOK to see your hands typing the word, as well as how it would FEEL to type it yourself. Think about the muscles moving in your hands and the feel of your fingers pressing the keys. While you watch the video and imagine this, rest your hands on your keyboard but DO NOT type until AFTER you see the typing prompt.

Remember to type as QUICKLY and ACCURATELY as possible

Ask the experimenter any questions now.

You will get one practice trial. Press 'enter/return' when you are ready to start the practice.","This is Section 4. 

In this section, your task will be the same as before - that is, to type the word you see on the screen AFTER the typing prompt. You will see a video again, like in Section 2, only this time, the video will show someone typing the same word that you will need to type.

While watching the video, imagine yourself typing the word on the screen.  Imagine how it would LOOK to see your hands typing the word, as well as how it would FEEL to type it yourself. Think about the muscles moving in your hands and the feel of your fingers pressing the keys. While you watch the video and imagine this, rest your hands on your keyboard but DO NOT type until AFTER you see the typing prompt.

Remember to type as QUICKLY and ACCURATELY as you can.

Ask the experimenter any questions now.

You will get one practice trial. Press 'enter/return' when you are ready to start the practice.",,,upkeep,parish,video&audio/Sentence5_touch_edited.mp4,video&audio/picket_touch_edited.mp4,gullet,picket,,,,,,,,,,,,,,,,,,,,,,,,,,,,,,,,,,,,,,,,,,,,,,,,,,,,,,,,,,,,,,,,,,,,,,,,,,,,
,,,,,,49,001,H,2022-03-31_15h28.42.751,studentExpTT_allGroups_v2,2021.1.4,MacIntel,60.0024001,,,,,,,,,,, legion,"[""l"",""e"",""g"",""i"",""o"",""n"",""return""]","[0.5311000000237982,0.6159999999999854,0.8643999999761718,1.2026000000238355,1.363999999999919,1.4793000000714756,1.8388999999760927]",0,6,6,29,1,"This is Section 2.

In this section, your task will be the same as before - that is, to type the word you see on the screen AFTER the typing prompt. However, rather than just seeing the word before typing, you will also see a video of someone typing different words to what you will need to type. 

While you watch the video, imagine yourself typing the word on the screen. Imagine how it would LOOK to see your hands typing the word, as well as how it would FEEL to type it yourself. Think about the muscles moving in your hands and the feel of your fingers pressing the keys. While you watch the video and imagine this, rest your hands on your keyboard but DO NOT type until AFTER you see the typing prompt.

Remember to type as QUICKLY and ACCURATELY as possible

Ask the experimenter any questions now.

You will get one practice trial. Press 'enter/return' when you are ready to start the practice.","This is Section 4. 

In this section, your task will be the same as before - that is, to type the word you see on the screen AFTER the typing prompt. You will see a video again, like in Section 2, only this time, the video will show someone typing the same word that you will need to type.

While watching the video, imagine yourself typing the word on the screen.  Imagine how it would LOOK to see your hands typing the word, as well as how it would FEEL to type it yourself. Think about the muscles moving in your hands and the feel of your fingers pressing the keys. While you watch the video and imagine this, rest your hands on your keyboard but DO NOT type until AFTER you see the typing prompt.

Remember to type as QUICKLY and ACCURATELY as you can.

Ask the experimenter any questions now.

You will get one practice trial. Press 'enter/return' when you are ready to start the practice.",,,legion,campus,video&audio/Sentence6_touch_edited.mp4,video&audio/forage_touch_edited.mp4,allure,forage,,,,,,,,,,,,,,,,,,,,,,,,,,,,,,,,,,,,,,,,,,,,,,,,,,,,,,,,,,,,,,,,,,,,,,,,,,,,
,,,,,,49,001,H,2022-03-31_15h28.42.751,studentExpTT_allGroups_v2,2021.1.4,MacIntel,60.0024001,,,,,,,,,,, strife,"[""s"",""t"",""r"",""i"",""f"",""e"",""return""]","[0.8246000000237927,1.1179999999999382,1.2308999999761454,1.43230000007145,2.051200000047629,2.1003000000714565,2.2514999999999645]",0,7,7,7,1,"This is Section 2.

In this section, your task will be the same as before - that is, to type the word you see on the screen AFTER the typing prompt. However, rather than just seeing the word before typing, you will also see a video of someone typing different words to what you will need to type. 

While you watch the video, imagine yourself typing the word on the screen. Imagine how it would LOOK to see your hands typing the word, as well as how it would FEEL to type it yourself. Think about the muscles moving in your hands and the feel of your fingers pressing the keys. While you watch the video and imagine this, rest your hands on your keyboard but DO NOT type until AFTER you see the typing prompt.

Remember to type as QUICKLY and ACCURATELY as possible

Ask the experimenter any questions now.

You will get one practice trial. Press 'enter/return' when you are ready to start the practice.","This is Section 4. 

In this section, your task will be the same as before - that is, to type the word you see on the screen AFTER the typing prompt. You will see a video again, like in Section 2, only this time, the video will show someone typing the same word that you will need to type.

While watching the video, imagine yourself typing the word on the screen.  Imagine how it would LOOK to see your hands typing the word, as well as how it would FEEL to type it yourself. Think about the muscles moving in your hands and the feel of your fingers pressing the keys. While you watch the video and imagine this, rest your hands on your keyboard but DO NOT type until AFTER you see the typing prompt.

Remember to type as QUICKLY and ACCURATELY as you can.

Ask the experimenter any questions now.

You will get one practice trial. Press 'enter/return' when you are ready to start the practice.",,,strife,delude,video&audio/Sentence2_touch_edited.mp4,video&audio/tariff_touch_edited.mp4,galley,tariff,,,,,,,,,,,,,,,,,,,,,,,,,,,,,,,,,,,,,,,,,,,,,,,,,,,,,,,,,,,,,,,,,,,,,,,,,,,,
,,,,,,49,001,H,2022-03-31_15h28.42.751,studentExpTT_allGroups_v2,2021.1.4,MacIntel,60.0024001,,,,,,,,,,, goblet,"[""g"",""o"",""b"",""l"",""e"",""t"",""return""]","[0.48080000007155377,0.6328000000714837,0.7807000000476592,0.94760000002384,1.0524000000954175,1.2830000000000155,1.4351000000237946]",0,8,8,8,1,"This is Section 2.

In this section, your task will be the same as before - that is, to type the word you see on the screen AFTER the typing prompt. However, rather than just seeing the word before typing, you will also see a video of someone typing different words to what you will need to type. 

While you watch the video, imagine yourself typing the word on the screen. Imagine how it would LOOK to see your hands typing the word, as well as how it would FEEL to type it yourself. Think about the muscles moving in your hands and the feel of your fingers pressing the keys. While you watch the video and imagine this, rest your hands on your keyboard but DO NOT type until AFTER you see the typing prompt.

Remember to type as QUICKLY and ACCURATELY as possible

Ask the experimenter any questions now.

You will get one practice trial. Press 'enter/return' when you are ready to start the practice.","This is Section 4. 

In this section, your task will be the same as before - that is, to type the word you see on the screen AFTER the typing prompt. You will see a video again, like in Section 2, only this time, the video will show someone typing the same word that you will need to type.

While watching the video, imagine yourself typing the word on the screen.  Imagine how it would LOOK to see your hands typing the word, as well as how it would FEEL to type it yourself. Think about the muscles moving in your hands and the feel of your fingers pressing the keys. While you watch the video and imagine this, rest your hands on your keyboard but DO NOT type until AFTER you see the typing prompt.

Remember to type as QUICKLY and ACCURATELY as you can.

Ask the experimenter any questions now.

You will get one practice trial. Press 'enter/return' when you are ready to start the practice.",,,goblet,befall,video&audio/Sentence3_touch_edited.mp4,video&audio/solemn_touch_edited.mp4,ration,solemn,,,,,,,,,,,,,,,,,,,,,,,,,,,,,,,,,,,,,,,,,,,,,,,,,,,,,,,,,,,,,,,,,,,,,,,,,,,,
,,,,,,49,001,H,2022-03-31_15h28.42.751,studentExpTT_allGroups_v2,2021.1.4,MacIntel,60.0024001,,,,,,,,,,, sonnet,"[""s"",""o"",""n"",""n"",""e"",""t"",""return""]","[0.29789999997626637,0.42139999997618816,0.7807999999523645,0.9211000000238982,1.017500000000041,1.1820000000000164,1.4501000000238946]",0,9,9,14,1,"This is Section 2.

In this section, your task will be the same as before - that is, to type the word you see on the screen AFTER the typing prompt. However, rather than just seeing the word before typing, you will also see a video of someone typing different words to what you will need to type. 

While you watch the video, imagine yourself typing the word on the screen. Imagine how it would LOOK to see your hands typing the word, as well as how it would FEEL to type it yourself. Think about the muscles moving in your hands and the feel of your fingers pressing the keys. While you watch the video and imagine this, rest your hands on your keyboard but DO NOT type until AFTER you see the typing prompt.

Remember to type as QUICKLY and ACCURATELY as possible

Ask the experimenter any questions now.

You will get one practice trial. Press 'enter/return' when you are ready to start the practice.","This is Section 4. 

In this section, your task will be the same as before - that is, to type the word you see on the screen AFTER the typing prompt. You will see a video again, like in Section 2, only this time, the video will show someone typing the same word that you will need to type.

While watching the video, imagine yourself typing the word on the screen.  Imagine how it would LOOK to see your hands typing the word, as well as how it would FEEL to type it yourself. Think about the muscles moving in your hands and the feel of your fingers pressing the keys. While you watch the video and imagine this, rest your hands on your keyboard but DO NOT type until AFTER you see the typing prompt.

Remember to type as QUICKLY and ACCURATELY as you can.

Ask the experimenter any questions now.

You will get one practice trial. Press 'enter/return' when you are ready to start the practice.",,,sonnet,hearth,video&audio/Sentence3_touch_edited.mp4,video&audio/hippie_touch_edited.mp4,herbal,hippie,,,,,,,,,,,,,,,,,,,,,,,,,,,,,,,,,,,,,,,,,,,,,,,,,,,,,,,,,,,,,,,,,,,,,,,,,,,,
,,,,,,49,001,H,2022-03-31_15h28.42.751,studentExpTT_allGroups_v2,2021.1.4,MacIntel,60.0024001,,,,,,,,,,"[""m""]", musket,"[""u"",""s"",""k"",""e"",""t"",""backspace"",""backspace"",""backspace"",""backspace"",""backspace"",""m"",""u"",""s"",""k"",""e"",""t"",""return""]","[0.001199999928530815,0.140699999928529,0.4820000000000846,0.5660000000000309,0.7520000000000664,1.3831000000238873,1.8817999999523636,2.0471999999284662,2.1903999999761936,2.364399999976172,2.7887999999524027,3.0691999999285144,3.2072999999523972,3.364100000023882,3.465899999976159,3.7080000000000837,3.8891999999285645]",0,10,10,25,1,"This is Section 2.

In this section, your task will be the same as before - that is, to type the word you see on the screen AFTER the typing prompt. However, rather than just seeing the word before typing, you will also see a video of someone typing different words to what you will need to type. 

While you watch the video, imagine yourself typing the word on the screen. Imagine how it would LOOK to see your hands typing the word, as well as how it would FEEL to type it yourself. Think about the muscles moving in your hands and the feel of your fingers pressing the keys. While you watch the video and imagine this, rest your hands on your keyboard but DO NOT type until AFTER you see the typing prompt.

Remember to type as QUICKLY and ACCURATELY as possible

Ask the experimenter any questions now.

You will get one practice trial. Press 'enter/return' when you are ready to start the practice.","This is Section 4. 

In this section, your task will be the same as before - that is, to type the word you see on the screen AFTER the typing prompt. You will see a video again, like in Section 2, only this time, the video will show someone typing the same word that you will need to type.

While watching the video, imagine yourself typing the word on the screen.  Imagine how it would LOOK to see your hands typing the word, as well as how it would FEEL to type it yourself. Think about the muscles moving in your hands and the feel of your fingers pressing the keys. While you watch the video and imagine this, rest your hands on your keyboard but DO NOT type until AFTER you see the typing prompt.

Remember to type as QUICKLY and ACCURATELY as you can.

Ask the experimenter any questions now.

You will get one practice trial. Press 'enter/return' when you are ready to start the practice.",,,musket,meddle,video&audio/Sentence2_touch_edited.mp4,video&audio/kipper_touch_edited.mp4,divert,kipper,,[2.4653000000715792],,,,,,,,,,,,,,,,,,,,,,,,,,,,,,,,,,,,,,,,,,,,,,,,,,,,,,,,,,,,,,,,,,,,,,,,,,
,,,,,,49,001,H,2022-03-31_15h28.42.751,studentExpTT_allGroups_v2,2021.1.4,MacIntel,60.0024001,,,,,,,,,,, binder,"[""b"",""i"",""n"",""d"",""e"",""r"",""return""]","[0.34910000002378183,0.4895000000000209,0.8154000000953374,1.0654000000953374,1.1831000000238419,1.3474999999999682,1.547700000047712]",0,11,11,11,1,"This is Section 2.

In this section, your task will be the same as before - that is, to type the word you see on the screen AFTER the typing prompt. However, rather than just seeing the word before typing, you will also see a video of someone typing different words to what you will need to type. 

While you watch the video, imagine yourself typing the word on the screen. Imagine how it would LOOK to see your hands typing the word, as well as how it would FEEL to type it yourself. Think about the muscles moving in your hands and the feel of your fingers pressing the keys. While you watch the video and imagine this, rest your hands on your keyboard but DO NOT type until AFTER you see the typing prompt.

Remember to type as QUICKLY and ACCURATELY as possible

Ask the experimenter any questions now.

You will get one practice trial. Press 'enter/return' when you are ready to start the practice.","This is Section 4. 

In this section, your task will be the same as before - that is, to type the word you see on the screen AFTER the typing prompt. You will see a video again, like in Section 2, only this time, the video will show someone typing the same word that you will need to type.

While watching the video, imagine yourself typing the word on the screen.  Imagine how it would LOOK to see your hands typing the word, as well as how it would FEEL to type it yourself. Think about the muscles moving in your hands and the feel of your fingers pressing the keys. While you watch the video and imagine this, rest your hands on your keyboard but DO NOT type until AFTER you see the typing prompt.

Remember to type as QUICKLY and ACCURATELY as you can.

Ask the experimenter any questions now.

You will get one practice trial. Press 'enter/return' when you are ready to start the practice.",,,binder,patent,video&audio/Sentence6_touch_edited.mp4,video&audio/covert_touch_edited.mp4,defame,covert,,,,,,,,,,,,,,,,,,,,,,,,,,,,,,,,,,,,,,,,,,,,,,,,,,,,,,,,,,,,,,,,,,,,,,,,,,,,
,,,,,,49,001,H,2022-03-31_15h28.42.751,studentExpTT_allGroups_v2,2021.1.4,MacIntel,60.0024001,,,,,,,,,,, potent,"[""p"",""o"",""t"",""e"",""n"",""t"",""return""]","[0.4531999999284153,0.6956000000238873,0.9524999999999864,1.0617999999523136,1.2061000000238664,1.2333999999762,1.663799999952289]",0,12,12,15,1,"This is Section 2.

In this section, your task will be the same as before - that is, to type the word you see on the screen AFTER the typing prompt. However, rather than just seeing the word before typing, you will also see a video of someone typing different words to what you will need to type. 

While you watch the video, imagine yourself typing the word on the screen. Imagine how it would LOOK to see your hands typing the word, as well as how it would FEEL to type it yourself. Think about the muscles moving in your hands and the feel of your fingers pressing the keys. While you watch the video and imagine this, rest your hands on your keyboard but DO NOT type until AFTER you see the typing prompt.

Remember to type as QUICKLY and ACCURATELY as possible

Ask the experimenter any questions now.

You will get one practice trial. Press 'enter/return' when you are ready to start the practice.","This is Section 4. 

In this section, your task will be the same as before - that is, to type the word you see on the screen AFTER the typing prompt. You will see a video again, like in Section 2, only this time, the video will show someone typing the same word that you will need to type.

While watching the video, imagine yourself typing the word on the screen.  Imagine how it would LOOK to see your hands typing the word, as well as how it would FEEL to type it yourself. Think about the muscles moving in your hands and the feel of your fingers pressing the keys. While you watch the video and imagine this, rest your hands on your keyboard but DO NOT type until AFTER you see the typing prompt.

Remember to type as QUICKLY and ACCURATELY as you can.

Ask the experimenter any questions now.

You will get one practice trial. Press 'enter/return' when you are ready to start the practice.",,,potent,tandem,video&audio/Sentence4_touch_edited.mp4,video&audio/falter_touch_edited.mp4,origin,falter,,,,,,,,,,,,,,,,,,,,,,,,,,,,,,,,,,,,,,,,,,,,,,,,,,,,,,,,,,,,,,,,,,,,,,,,,,,,
,,,,,,49,001,H,2022-03-31_15h28.42.751,studentExpTT_allGroups_v2,2021.1.4,MacIntel,60.0024001,,,,,,,,,,, vanity,"[""v"",""a"",""n"",""i"",""t"",""y"",""return""]","[0.34579999995230537,0.45329999995237813,0.5919999999999845,1.1615000000000464,1.4053999999762254,1.4781000000239146,1.8616999999285326]",0,13,13,0,1,"This is Section 2.

In this section, your task will be the same as before - that is, to type the word you see on the screen AFTER the typing prompt. However, rather than just seeing the word before typing, you will also see a video of someone typing different words to what you will need to type. 

While you watch the video, imagine yourself typing the word on the screen. Imagine how it would LOOK to see your hands typing the word, as well as how it would FEEL to type it yourself. Think about the muscles moving in your hands and the feel of your fingers pressing the keys. While you watch the video and imagine this, rest your hands on your keyboard but DO NOT type until AFTER you see the typing prompt.

Remember to type as QUICKLY and ACCURATELY as possible

Ask the experimenter any questions now.

You will get one practice trial. Press 'enter/return' when you are ready to start the practice.","This is Section 4. 

In this section, your task will be the same as before - that is, to type the word you see on the screen AFTER the typing prompt. You will see a video again, like in Section 2, only this time, the video will show someone typing the same word that you will need to type.

While watching the video, imagine yourself typing the word on the screen.  Imagine how it would LOOK to see your hands typing the word, as well as how it would FEEL to type it yourself. Think about the muscles moving in your hands and the feel of your fingers pressing the keys. While you watch the video and imagine this, rest your hands on your keyboard but DO NOT type until AFTER you see the typing prompt.

Remember to type as QUICKLY and ACCURATELY as you can.

Ask the experimenter any questions now.

You will get one practice trial. Press 'enter/return' when you are ready to start the practice.",butter,video&audio/amount_touch_edited.mp4,vanity,hinder,video&audio/Sentence1_touch_edited.mp4,video&audio/matrix_touch_edited.mp4,breach,matrix,1 = AOMIgen,,,,,,,,,,,,,,,,,,,,,,,,,,,,,,,,,,,,,,,,,,,,,,,,,,,,,,,,,,,,,,,,,,,,,,,,,,,
,,,,,,49,001,H,2022-03-31_15h28.42.751,studentExpTT_allGroups_v2,2021.1.4,MacIntel,60.0024001,,,,,,,,,,, manure,"[""m"",""a"",""n"",""u"",""r"",""e"",""return""]","[0.4828999999762118,0.6304999999999836,0.7823000000715865,1.068300000071531,1.1901000000239037,1.2488999999761745,1.4903999999761481]",0,14,14,23,1,"This is Section 2.

In this section, your task will be the same as before - that is, to type the word you see on the screen AFTER the typing prompt. However, rather than just seeing the word before typing, you will also see a video of someone typing different words to what you will need to type. 

While you watch the video, imagine yourself typing the word on the screen. Imagine how it would LOOK to see your hands typing the word, as well as how it would FEEL to type it yourself. Think about the muscles moving in your hands and the feel of your fingers pressing the keys. While you watch the video and imagine this, rest your hands on your keyboard but DO NOT type until AFTER you see the typing prompt.

Remember to type as QUICKLY and ACCURATELY as possible

Ask the experimenter any questions now.

You will get one practice trial. Press 'enter/return' when you are ready to start the practice.","This is Section 4. 

In this section, your task will be the same as before - that is, to type the word you see on the screen AFTER the typing prompt. You will see a video again, like in Section 2, only this time, the video will show someone typing the same word that you will need to type.

While watching the video, imagine yourself typing the word on the screen.  Imagine how it would LOOK to see your hands typing the word, as well as how it would FEEL to type it yourself. Think about the muscles moving in your hands and the feel of your fingers pressing the keys. While you watch the video and imagine this, rest your hands on your keyboard but DO NOT type until AFTER you see the typing prompt.

Remember to type as QUICKLY and ACCURATELY as you can.

Ask the experimenter any questions now.

You will get one practice trial. Press 'enter/return' when you are ready to start the practice.",,,manure,girdle,video&audio/Sentence6_touch_edited.mp4,video&audio/belfry_touch_edited.mp4,linear,belfry,,,,,,,,,,,,,,,,,,,,,,,,,,,,,,,,,,,,,,,,,,,,,,,,,,,,,,,,,,,,,,,,,,,,,,,,,,,,
,,,,,,49,001,H,2022-03-31_15h28.42.751,studentExpTT_allGroups_v2,2021.1.4,MacIntel,60.0024001,,,,,,,,,,, coerce,"[""c"",""o"",""e"",""r"",""c"",""e"",""return""]","[0.4363999999761745,0.5884999999999536,0.819399999976099,1.0333999999761545,1.4813999999761336,1.548100000023851,1.7659999999999627]",0,15,15,17,1,"This is Section 2.

In this section, your task will be the same as before - that is, to type the word you see on the screen AFTER the typing prompt. However, rather than just seeing the word before typing, you will also see a video of someone typing different words to what you will need to type. 

While you watch the video, imagine yourself typing the word on the screen. Imagine how it would LOOK to see your hands typing the word, as well as how it would FEEL to type it yourself. Think about the muscles moving in your hands and the feel of your fingers pressing the keys. While you watch the video and imagine this, rest your hands on your keyboard but DO NOT type until AFTER you see the typing prompt.

Remember to type as QUICKLY and ACCURATELY as possible

Ask the experimenter any questions now.

You will get one practice trial. Press 'enter/return' when you are ready to start the practice.","This is Section 4. 

In this section, your task will be the same as before - that is, to type the word you see on the screen AFTER the typing prompt. You will see a video again, like in Section 2, only this time, the video will show someone typing the same word that you will need to type.

While watching the video, imagine yourself typing the word on the screen.  Imagine how it would LOOK to see your hands typing the word, as well as how it would FEEL to type it yourself. Think about the muscles moving in your hands and the feel of your fingers pressing the keys. While you watch the video and imagine this, rest your hands on your keyboard but DO NOT type until AFTER you see the typing prompt.

Remember to type as QUICKLY and ACCURATELY as you can.

Ask the experimenter any questions now.

You will get one practice trial. Press 'enter/return' when you are ready to start the practice.",,,coerce,clergy,video&audio/Sentence6_touch_edited.mp4,video&audio/ritual_touch_edited.mp4,portal,ritual,,,,,,,,,,,,,,,,,,,,,,,,,,,,,,,,,,,,,,,,,,,,,,,,,,,,,,,,,,,,,,,,,,,,,,,,,,,,
,,,,,,49,001,H,2022-03-31_15h28.42.751,studentExpTT_allGroups_v2,2021.1.4,MacIntel,60.0024001,,,,,,,,,,, plight,"[""p"",""l"",""i"",""g"",""h"",""t"",""return""]","[0.3488000000716056,0.5555000000000518,0.8147000000477647,0.9649000000954402,1.0824999999999818,1.2193000000715983,1.815300000071602]",0,16,16,1,1,"This is Section 2.

In this section, your task will be the same as before - that is, to type the word you see on the screen AFTER the typing prompt. However, rather than just seeing the word before typing, you will also see a video of someone typing different words to what you will need to type. 

While you watch the video, imagine yourself typing the word on the screen. Imagine how it would LOOK to see your hands typing the word, as well as how it would FEEL to type it yourself. Think about the muscles moving in your hands and the feel of your fingers pressing the keys. While you watch the video and imagine this, rest your hands on your keyboard but DO NOT type until AFTER you see the typing prompt.

Remember to type as QUICKLY and ACCURATELY as possible

Ask the experimenter any questions now.

You will get one practice trial. Press 'enter/return' when you are ready to start the practice.","This is Section 4. 

In this section, your task will be the same as before - that is, to type the word you see on the screen AFTER the typing prompt. You will see a video again, like in Section 2, only this time, the video will show someone typing the same word that you will need to type.

While watching the video, imagine yourself typing the word on the screen.  Imagine how it would LOOK to see your hands typing the word, as well as how it would FEEL to type it yourself. Think about the muscles moving in your hands and the feel of your fingers pressing the keys. While you watch the video and imagine this, rest your hands on your keyboard but DO NOT type until AFTER you see the typing prompt.

Remember to type as QUICKLY and ACCURATELY as you can.

Ask the experimenter any questions now.

You will get one practice trial. Press 'enter/return' when you are ready to start the practice.",afford,video&audio/afford_touch_edited.mp4,plight,metric,video&audio/Sentence2_touch_edited.mp4,video&audio/ascend_touch_edited.mp4,eatery,ascend,2 = AOMIspec,,,,,,,,,,,,,,,,,,,,,,,,,,,,,,,,,,,,,,,,,,,,,,,,,,,,,,,,,,,,,,,,,,,,,,,,,,,
,,,,,,49,001,H,2022-03-31_15h28.42.751,studentExpTT_allGroups_v2,2021.1.4,MacIntel,60.0024001,,,,,,,,,,, impose,"[""i"",""m"",""p"",""o"",""s"",""e"",""return""]","[0.4152999999523672,0.7202999999523172,0.9307999999523418,1.1961000000238755,1.3546999999284708,1.5971000000239428,1.897199999928489]",0,17,17,26,1,"This is Section 2.

In this section, your task will be the same as before - that is, to type the word you see on the screen AFTER the typing prompt. However, rather than just seeing the word before typing, you will also see a video of someone typing different words to what you will need to type. 

While you watch the video, imagine yourself typing the word on the screen. Imagine how it would LOOK to see your hands typing the word, as well as how it would FEEL to type it yourself. Think about the muscles moving in your hands and the feel of your fingers pressing the keys. While you watch the video and imagine this, rest your hands on your keyboard but DO NOT type until AFTER you see the typing prompt.

Remember to type as QUICKLY and ACCURATELY as possible

Ask the experimenter any questions now.

You will get one practice trial. Press 'enter/return' when you are ready to start the practice.","This is Section 4. 

In this section, your task will be the same as before - that is, to type the word you see on the screen AFTER the typing prompt. You will see a video again, like in Section 2, only this time, the video will show someone typing the same word that you will need to type.

While watching the video, imagine yourself typing the word on the screen.  Imagine how it would LOOK to see your hands typing the word, as well as how it would FEEL to type it yourself. Think about the muscles moving in your hands and the feel of your fingers pressing the keys. While you watch the video and imagine this, rest your hands on your keyboard but DO NOT type until AFTER you see the typing prompt.

Remember to type as QUICKLY and ACCURATELY as you can.

Ask the experimenter any questions now.

You will get one practice trial. Press 'enter/return' when you are ready to start the practice.",,,impose,feudal,video&audio/Sentence3_touch_edited.mp4,video&audio/subdue_touch_edited.mp4,matron,subdue,,,,,,,,,,,,,,,,,,,,,,,,,,,,,,,,,,,,,,,,,,,,,,,,,,,,,,,,,,,,,,,,,,,,,,,,,,,,
,,,,,,49,001,H,2022-03-31_15h28.42.751,studentExpTT_allGroups_v2,2021.1.4,MacIntel,60.0024001,,,,,,,,,,, pursue,"[""p"",""u"",""r"",""s"",""u"",""e"",""return""]","[0.3451000000238764,0.6621000000238837,1.0291000000238455,1.2453999999761436,1.3953999999761209,1.8218999999761536,1.961500000000001]",0,18,18,20,1,"This is Section 2.

In this section, your task will be the same as before - that is, to type the word you see on the screen AFTER the typing prompt. However, rather than just seeing the word before typing, you will also see a video of someone typing different words to what you will need to type. 

While you watch the video, imagine yourself typing the word on the screen. Imagine how it would LOOK to see your hands typing the word, as well as how it would FEEL to type it yourself. Think about the muscles moving in your hands and the feel of your fingers pressing the keys. While you watch the video and imagine this, rest your hands on your keyboard but DO NOT type until AFTER you see the typing prompt.

Remember to type as QUICKLY and ACCURATELY as possible

Ask the experimenter any questions now.

You will get one practice trial. Press 'enter/return' when you are ready to start the practice.","This is Section 4. 

In this section, your task will be the same as before - that is, to type the word you see on the screen AFTER the typing prompt. You will see a video again, like in Section 2, only this time, the video will show someone typing the same word that you will need to type.

While watching the video, imagine yourself typing the word on the screen.  Imagine how it would LOOK to see your hands typing the word, as well as how it would FEEL to type it yourself. Think about the muscles moving in your hands and the feel of your fingers pressing the keys. While you watch the video and imagine this, rest your hands on your keyboard but DO NOT type until AFTER you see the typing prompt.

Remember to type as QUICKLY and ACCURATELY as you can.

Ask the experimenter any questions now.

You will get one practice trial. Press 'enter/return' when you are ready to start the practice.",,,pursue,caviar,video&audio/Sentence3_touch_edited.mp4,video&audio/piston_touch_edited.mp4,shrill,piston,,,,,,,,,,,,,,,,,,,,,,,,,,,,,,,,,,,,,,,,,,,,,,,,,,,,,,,,,,,,,,,,,,,,,,,,,,,,
,,,,,,49,001,H,2022-03-31_15h28.42.751,studentExpTT_allGroups_v2,2021.1.4,MacIntel,60.0024001,,,,,,,,,,, critic,"[""c"",""r"",""i"",""t"",""i"",""c"",""return""]","[0.47219999992842077,0.7528999999760799,0.9296999999284026,1.0475000000000136,1.1730999999045935,1.4975999999046508,1.6465999999046517]",0,19,19,12,1,"This is Section 2.

In this section, your task will be the same as before - that is, to type the word you see on the screen AFTER the typing prompt. However, rather than just seeing the word before typing, you will also see a video of someone typing different words to what you will need to type. 

While you watch the video, imagine yourself typing the word on the screen. Imagine how it would LOOK to see your hands typing the word, as well as how it would FEEL to type it yourself. Think about the muscles moving in your hands and the feel of your fingers pressing the keys. While you watch the video and imagine this, rest your hands on your keyboard but DO NOT type until AFTER you see the typing prompt.

Remember to type as QUICKLY and ACCURATELY as possible

Ask the experimenter any questions now.

You will get one practice trial. Press 'enter/return' when you are ready to start the practice.","This is Section 4. 

In this section, your task will be the same as before - that is, to type the word you see on the screen AFTER the typing prompt. You will see a video again, like in Section 2, only this time, the video will show someone typing the same word that you will need to type.

While watching the video, imagine yourself typing the word on the screen.  Imagine how it would LOOK to see your hands typing the word, as well as how it would FEEL to type it yourself. Think about the muscles moving in your hands and the feel of your fingers pressing the keys. While you watch the video and imagine this, rest your hands on your keyboard but DO NOT type until AFTER you see the typing prompt.

Remember to type as QUICKLY and ACCURATELY as you can.

Ask the experimenter any questions now.

You will get one practice trial. Press 'enter/return' when you are ready to start the practice.",,,critic,innate,video&audio/Sentence1_touch_edited.mp4,video&audio/confer_touch_edited.mp4,tamper,confer,,,,,,,,,,,,,,,,,,,,,,,,,,,,,,,,,,,,,,,,,,,,,,,,,,,,,,,,,,,,,,,,,,,,,,,,,,,,
,,,,,,49,001,H,2022-03-31_15h28.42.751,studentExpTT_allGroups_v2,2021.1.4,MacIntel,60.0024001,,,,,,,,,,, deduct,"[""d"",""e"",""d"",""u"",""c"",""t"",""return""]","[0.46479999995233356,0.5487999999523936,0.875,1.0162999999523663,1.2047999999523427,1.5308999999762136,1.6816000000238773]",0,20,20,16,1,"This is Section 2.

In this section, your task will be the same as before - that is, to type the word you see on the screen AFTER the typing prompt. However, rather than just seeing the word before typing, you will also see a video of someone typing different words to what you will need to type. 

While you watch the video, imagine yourself typing the word on the screen. Imagine how it would LOOK to see your hands typing the word, as well as how it would FEEL to type it yourself. Think about the muscles moving in your hands and the feel of your fingers pressing the keys. While you watch the video and imagine this, rest your hands on your keyboard but DO NOT type until AFTER you see the typing prompt.

Remember to type as QUICKLY and ACCURATELY as possible

Ask the experimenter any questions now.

You will get one practice trial. Press 'enter/return' when you are ready to start the practice.","This is Section 4. 

In this section, your task will be the same as before - that is, to type the word you see on the screen AFTER the typing prompt. You will see a video again, like in Section 2, only this time, the video will show someone typing the same word that you will need to type.

While watching the video, imagine yourself typing the word on the screen.  Imagine how it would LOOK to see your hands typing the word, as well as how it would FEEL to type it yourself. Think about the muscles moving in your hands and the feel of your fingers pressing the keys. While you watch the video and imagine this, rest your hands on your keyboard but DO NOT type until AFTER you see the typing prompt.

Remember to type as QUICKLY and ACCURATELY as you can.

Ask the experimenter any questions now.

You will get one practice trial. Press 'enter/return' when you are ready to start the practice.",,,deduct,jailer,video&audio/Sentence5_touch_edited.mp4,video&audio/plasma_touch_edited.mp4,nettle,plasma,,,,,,,,,,,,,,,,,,,,,,,,,,,,,,,,,,,,,,,,,,,,,,,,,,,,,,,,,,,,,,,,,,,,,,,,,,,,
,,,,,,49,001,H,2022-03-31_15h28.42.751,studentExpTT_allGroups_v2,2021.1.4,MacIntel,60.0024001,,,,,,,,,,, convoy,"[""c"",""o"",""n"",""v"",""o"",""y"",""return""]","[0.5391000000238364,0.63900000000001,0.8638999999761836,1.09729999995227,1.2827999999523172,1.53579999995236,1.7837999999522935]",0,21,21,18,1,"This is Section 2.

In this section, your task will be the same as before - that is, to type the word you see on the screen AFTER the typing prompt. However, rather than just seeing the word before typing, you will also see a video of someone typing different words to what you will need to type. 

While you watch the video, imagine yourself typing the word on the screen. Imagine how it would LOOK to see your hands typing the word, as well as how it would FEEL to type it yourself. Think about the muscles moving in your hands and the feel of your fingers pressing the keys. While you watch the video and imagine this, rest your hands on your keyboard but DO NOT type until AFTER you see the typing prompt.

Remember to type as QUICKLY and ACCURATELY as possible

Ask the experimenter any questions now.

You will get one practice trial. Press 'enter/return' when you are ready to start the practice.","This is Section 4. 

In this section, your task will be the same as before - that is, to type the word you see on the screen AFTER the typing prompt. You will see a video again, like in Section 2, only this time, the video will show someone typing the same word that you will need to type.

While watching the video, imagine yourself typing the word on the screen.  Imagine how it would LOOK to see your hands typing the word, as well as how it would FEEL to type it yourself. Think about the muscles moving in your hands and the feel of your fingers pressing the keys. While you watch the video and imagine this, rest your hands on your keyboard but DO NOT type until AFTER you see the typing prompt.

Remember to type as QUICKLY and ACCURATELY as you can.

Ask the experimenter any questions now.

You will get one practice trial. Press 'enter/return' when you are ready to start the practice.",,,convoy,output,video&audio/Sentence1_touch_edited.mp4,video&audio/debtor_touch_edited.mp4,uphold,debtor,,,,,,,,,,,,,,,,,,,,,,,,,,,,,,,,,,,,,,,,,,,,,,,,,,,,,,,,,,,,,,,,,,,,,,,,,,,,
,,,,,,49,001,H,2022-03-31_15h28.42.751,studentExpTT_allGroups_v2,2021.1.4,MacIntel,60.0024001,,,,,,,,,,, murmur,"[""m"",""u"",""r"",""m"",""u"",""r"",""return""]","[0.5632000000476864,0.9549999999999272,1.0688999999761108,1.312899999976139,1.5053999999761345,1.6138999999761836,2.1718999999761763]",0,22,22,19,1,"This is Section 2.

In this section, your task will be the same as before - that is, to type the word you see on the screen AFTER the typing prompt. However, rather than just seeing the word before typing, you will also see a video of someone typing different words to what you will need to type. 

While you watch the video, imagine yourself typing the word on the screen. Imagine how it would LOOK to see your hands typing the word, as well as how it would FEEL to type it yourself. Think about the muscles moving in your hands and the feel of your fingers pressing the keys. While you watch the video and imagine this, rest your hands on your keyboard but DO NOT type until AFTER you see the typing prompt.

Remember to type as QUICKLY and ACCURATELY as possible

Ask the experimenter any questions now.

You will get one practice trial. Press 'enter/return' when you are ready to start the practice.","This is Section 4. 

In this section, your task will be the same as before - that is, to type the word you see on the screen AFTER the typing prompt. You will see a video again, like in Section 2, only this time, the video will show someone typing the same word that you will need to type.

While watching the video, imagine yourself typing the word on the screen.  Imagine how it would LOOK to see your hands typing the word, as well as how it would FEEL to type it yourself. Think about the muscles moving in your hands and the feel of your fingers pressing the keys. While you watch the video and imagine this, rest your hands on your keyboard but DO NOT type until AFTER you see the typing prompt.

Remember to type as QUICKLY and ACCURATELY as you can.

Ask the experimenter any questions now.

You will get one practice trial. Press 'enter/return' when you are ready to start the practice.",,,murmur,cobble,video&audio/Sentence2_touch_edited.mp4,video&audio/cervix_touch_edited.mp4,export,cervix,,,,,,,,,,,,,,,,,,,,,,,,,,,,,,,,,,,,,,,,,,,,,,,,,,,,,,,,,,,,,,,,,,,,,,,,,,,,
,,,,,,49,001,H,2022-03-31_15h28.42.751,studentExpTT_allGroups_v2,2021.1.4,MacIntel,60.0024001,,,,,,,,,,, infirm,"[""i"",""n"",""f"",""i"",""r"",""m"",""return""]","[0.590100000023881,0.7991000000238273,0.9893000000715801,1.5988999999761973,1.69889999997622,1.8328000000715292,2.1988000000715147]",0,23,23,3,1,"This is Section 2.

In this section, your task will be the same as before - that is, to type the word you see on the screen AFTER the typing prompt. However, rather than just seeing the word before typing, you will also see a video of someone typing different words to what you will need to type. 

While you watch the video, imagine yourself typing the word on the screen. Imagine how it would LOOK to see your hands typing the word, as well as how it would FEEL to type it yourself. Think about the muscles moving in your hands and the feel of your fingers pressing the keys. While you watch the video and imagine this, rest your hands on your keyboard but DO NOT type until AFTER you see the typing prompt.

Remember to type as QUICKLY and ACCURATELY as possible

Ask the experimenter any questions now.

You will get one practice trial. Press 'enter/return' when you are ready to start the practice.","This is Section 4. 

In this section, your task will be the same as before - that is, to type the word you see on the screen AFTER the typing prompt. You will see a video again, like in Section 2, only this time, the video will show someone typing the same word that you will need to type.

While watching the video, imagine yourself typing the word on the screen.  Imagine how it would LOOK to see your hands typing the word, as well as how it would FEEL to type it yourself. Think about the muscles moving in your hands and the feel of your fingers pressing the keys. While you watch the video and imagine this, rest your hands on your keyboard but DO NOT type until AFTER you see the typing prompt.

Remember to type as QUICKLY and ACCURATELY as you can.

Ask the experimenter any questions now.

You will get one practice trial. Press 'enter/return' when you are ready to start the practice.",,,infirm,oblige,video&audio/Sentence4_touch_edited.mp4,video&audio/pulpit_touch_edited.mp4,mystic,pulpit,,,,,,,,,,,,,,,,,,,,,,,,,,,,,,,,,,,,,,,,,,,,,,,,,,,,,,,,,,,,,,,,,,,,,,,,,,,,
,,,,,,49,001,H,2022-03-31_15h28.42.751,studentExpTT_allGroups_v2,2021.1.4,MacIntel,60.0024001,,,,,,,,,,, satire,"[""s"",""a"",""t"",""i"",""r"",""e"",""return""]","[0.4742999999522226,0.5335000000000036,1.083799999952248,1.2318999999761218,1.3657999999522872,1.4663999999761472,1.750699999928429]",0,24,24,24,1,"This is Section 2.

In this section, your task will be the same as before - that is, to type the word you see on the screen AFTER the typing prompt. However, rather than just seeing the word before typing, you will also see a video of someone typing different words to what you will need to type. 

While you watch the video, imagine yourself typing the word on the screen. Imagine how it would LOOK to see your hands typing the word, as well as how it would FEEL to type it yourself. Think about the muscles moving in your hands and the feel of your fingers pressing the keys. While you watch the video and imagine this, rest your hands on your keyboard but DO NOT type until AFTER you see the typing prompt.

Remember to type as QUICKLY and ACCURATELY as possible

Ask the experimenter any questions now.

You will get one practice trial. Press 'enter/return' when you are ready to start the practice.","This is Section 4. 

In this section, your task will be the same as before - that is, to type the word you see on the screen AFTER the typing prompt. You will see a video again, like in Section 2, only this time, the video will show someone typing the same word that you will need to type.

While watching the video, imagine yourself typing the word on the screen.  Imagine how it would LOOK to see your hands typing the word, as well as how it would FEEL to type it yourself. Think about the muscles moving in your hands and the feel of your fingers pressing the keys. While you watch the video and imagine this, rest your hands on your keyboard but DO NOT type until AFTER you see the typing prompt.

Remember to type as QUICKLY and ACCURATELY as you can.

Ask the experimenter any questions now.

You will get one practice trial. Press 'enter/return' when you are ready to start the practice.",,,satire,mangle,video&audio/Sentence1_touch_edited.mp4,video&audio/devise_touch_edited.mp4,warble,devise,,,,,,,,,,,,,,,,,,,,,,,,,,,,,,,,,,,,,,,,,,,,,,,,,,,,,,,,,,,,,,,,,,,,,,,,,,,,
,,,,,,49,001,H,2022-03-31_15h28.42.751,studentExpTT_allGroups_v2,2021.1.4,MacIntel,60.0024001,,,,,,,,,,"[""n"",""o"",""v"",""i""]", novice,"[""n"",""o"",""v"",""i"",""c"",""e"",""return""]","[0.982700000047771,1.1132000000477547,1.472600000023931,1.5996000000238837,1.7706000000239328,1.870700000047691,2.2887000000476974]",0,25,25,4,1,"This is Section 2.

In this section, your task will be the same as before - that is, to type the word you see on the screen AFTER the typing prompt. However, rather than just seeing the word before typing, you will also see a video of someone typing different words to what you will need to type. 

While you watch the video, imagine yourself typing the word on the screen. Imagine how it would LOOK to see your hands typing the word, as well as how it would FEEL to type it yourself. Think about the muscles moving in your hands and the feel of your fingers pressing the keys. While you watch the video and imagine this, rest your hands on your keyboard but DO NOT type until AFTER you see the typing prompt.

Remember to type as QUICKLY and ACCURATELY as possible

Ask the experimenter any questions now.

You will get one practice trial. Press 'enter/return' when you are ready to start the practice.","This is Section 4. 

In this section, your task will be the same as before - that is, to type the word you see on the screen AFTER the typing prompt. You will see a video again, like in Section 2, only this time, the video will show someone typing the same word that you will need to type.

While watching the video, imagine yourself typing the word on the screen.  Imagine how it would LOOK to see your hands typing the word, as well as how it would FEEL to type it yourself. Think about the muscles moving in your hands and the feel of your fingers pressing the keys. While you watch the video and imagine this, rest your hands on your keyboard but DO NOT type until AFTER you see the typing prompt.

Remember to type as QUICKLY and ACCURATELY as you can.

Ask the experimenter any questions now.

You will get one practice trial. Press 'enter/return' when you are ready to start the practice.",,,novice,primal,video&audio/Sentence5_touch_edited.mp4,video&audio/parcel_touch_edited.mp4,entail,parcel,,"[2.4568999999761445,2.624500000000012,2.8363999999761518,2.957899999976121]",,,,,,,,,,,,,,,,,,,,,,,,,,,,,,,,,,,,,,,,,,,,,,,,,,,,,,,,,,,,,,,,,,,,,,,,,,
,,,,,,49,001,H,2022-03-31_15h28.42.751,studentExpTT_allGroups_v2,2021.1.4,MacIntel,60.0024001,,,,,,,,,,, quarry,"[""q"",""u"",""a"",""r"",""r"",""y"",""return""]","[0.43760000002384913,0.5881000000238146,0.7623999999761963,1.4123999999761736,1.5456000000237964,2.3057000000476364,2.4657000000477183]",0,26,26,13,1,"This is Section 2.

In this section, your task will be the same as before - that is, to type the word you see on the screen AFTER the typing prompt. However, rather than just seeing the word before typing, you will also see a video of someone typing different words to what you will need to type. 

While you watch the video, imagine yourself typing the word on the screen. Imagine how it would LOOK to see your hands typing the word, as well as how it would FEEL to type it yourself. Think about the muscles moving in your hands and the feel of your fingers pressing the keys. While you watch the video and imagine this, rest your hands on your keyboard but DO NOT type until AFTER you see the typing prompt.

Remember to type as QUICKLY and ACCURATELY as possible

Ask the experimenter any questions now.

You will get one practice trial. Press 'enter/return' when you are ready to start the practice.","This is Section 4. 

In this section, your task will be the same as before - that is, to type the word you see on the screen AFTER the typing prompt. You will see a video again, like in Section 2, only this time, the video will show someone typing the same word that you will need to type.

While watching the video, imagine yourself typing the word on the screen.  Imagine how it would LOOK to see your hands typing the word, as well as how it would FEEL to type it yourself. Think about the muscles moving in your hands and the feel of your fingers pressing the keys. While you watch the video and imagine this, rest your hands on your keyboard but DO NOT type until AFTER you see the typing prompt.

Remember to type as QUICKLY and ACCURATELY as you can.

Ask the experimenter any questions now.

You will get one practice trial. Press 'enter/return' when you are ready to start the practice.",,,quarry,septic,video&audio/Sentence2_touch_edited.mp4,video&audio/neural_touch_edited.mp4,ordain,neural,,,,,,,,,,,,,,,,,,,,,,,,,,,,,,,,,,,,,,,,,,,,,,,,,,,,,,,,,,,,,,,,,,,,,,,,,,,,
,,,,,,49,001,H,2022-03-31_15h28.42.751,studentExpTT_allGroups_v2,2021.1.4,MacIntel,60.0024001,,,,,,,,,,, revolt,"[""r"",""e"",""v"",""o"",""l"",""t"",""return""]","[0.28100000000006276,0.4221000000238746,0.80210000002387,0.9509000000954302,1.1468000000716074,1.3051000000239128,1.5375000000000227]",0,27,27,5,1,"This is Section 2.

In this section, your task will be the same as before - that is, to type the word you see on the screen AFTER the typing prompt. However, rather than just seeing the word before typing, you will also see a video of someone typing different words to what you will need to type. 

While you watch the video, imagine yourself typing the word on the screen. Imagine how it would LOOK to see your hands typing the word, as well as how it would FEEL to type it yourself. Think about the muscles moving in your hands and the feel of your fingers pressing the keys. While you watch the video and imagine this, rest your hands on your keyboard but DO NOT type until AFTER you see the typing prompt.

Remember to type as QUICKLY and ACCURATELY as possible

Ask the experimenter any questions now.

You will get one practice trial. Press 'enter/return' when you are ready to start the practice.","This is Section 4. 

In this section, your task will be the same as before - that is, to type the word you see on the screen AFTER the typing prompt. You will see a video again, like in Section 2, only this time, the video will show someone typing the same word that you will need to type.

While watching the video, imagine yourself typing the word on the screen.  Imagine how it would LOOK to see your hands typing the word, as well as how it would FEEL to type it yourself. Think about the muscles moving in your hands and the feel of your fingers pressing the keys. While you watch the video and imagine this, rest your hands on your keyboard but DO NOT type until AFTER you see the typing prompt.

Remember to type as QUICKLY and ACCURATELY as you can.

Ask the experimenter any questions now.

You will get one practice trial. Press 'enter/return' when you are ready to start the practice.",,,revolt,joiner,video&audio/Sentence6_touch_edited.mp4,video&audio/virile_touch_edited.mp4,apathy,virile,,,,,,,,,,,,,,,,,,,,,,,,,,,,,,,,,,,,,,,,,,,,,,,,,,,,,,,,,,,,,,,,,,,,,,,,,,,,
,,,,,,49,001,H,2022-03-31_15h28.42.751,studentExpTT_allGroups_v2,2021.1.4,MacIntel,60.0024001,,,,,,,,,,, brazen,"[""b"",""r"",""a"",""z"",""e"",""n"",""return""]","[0.5207000000476683,0.8683999999761909,1.02829999995231,1.6786000000238346,2.02670000004764,2.389799999952288,2.8327999999522717]",0,28,28,22,1,"This is Section 2.

In this section, your task will be the same as before - that is, to type the word you see on the screen AFTER the typing prompt. However, rather than just seeing the word before typing, you will also see a video of someone typing different words to what you will need to type. 

While you watch the video, imagine yourself typing the word on the screen. Imagine how it would LOOK to see your hands typing the word, as well as how it would FEEL to type it yourself. Think about the muscles moving in your hands and the feel of your fingers pressing the keys. While you watch the video and imagine this, rest your hands on your keyboard but DO NOT type until AFTER you see the typing prompt.

Remember to type as QUICKLY and ACCURATELY as possible

Ask the experimenter any questions now.

You will get one practice trial. Press 'enter/return' when you are ready to start the practice.","This is Section 4. 

In this section, your task will be the same as before - that is, to type the word you see on the screen AFTER the typing prompt. You will see a video again, like in Section 2, only this time, the video will show someone typing the same word that you will need to type.

While watching the video, imagine yourself typing the word on the screen.  Imagine how it would LOOK to see your hands typing the word, as well as how it would FEEL to type it yourself. Think about the muscles moving in your hands and the feel of your fingers pressing the keys. While you watch the video and imagine this, rest your hands on your keyboard but DO NOT type until AFTER you see the typing prompt.

Remember to type as QUICKLY and ACCURATELY as you can.

Ask the experimenter any questions now.

You will get one practice trial. Press 'enter/return' when you are ready to start the practice.",,,brazen,fungal,video&audio/Sentence5_touch_edited.mp4,video&audio/subtle_touch_edited.mp4,mucous,subtle,,,,,,,,,,,,,,,,,,,,,,,,,,,,,,,,,,,,,,,,,,,,,,,,,,,,,,,,,,,,,,,,,,,,,,,,,,,,
,,,,,,49,001,H,2022-03-31_15h28.42.751,studentExpTT_allGroups_v2,2021.1.4,MacIntel,60.0024001,,,,,,,,,,, mirage,"[""m"",""i"",""a"",""r"",""backspace"",""backspace"",""r"",""a"",""g"",""e"",""return""]","[0.3624999999999545,0.6921000000238564,0.9041000000238455,1.0177999999523308,1.7101000000238855,1.8666000000238228,2.3772999999523563,2.45150000000001,2.628200000047741,2.8450000000000273,3.295799999952351]",0,29,29,6,1,"This is Section 2.

In this section, your task will be the same as before - that is, to type the word you see on the screen AFTER the typing prompt. However, rather than just seeing the word before typing, you will also see a video of someone typing different words to what you will need to type. 

While you watch the video, imagine yourself typing the word on the screen. Imagine how it would LOOK to see your hands typing the word, as well as how it would FEEL to type it yourself. Think about the muscles moving in your hands and the feel of your fingers pressing the keys. While you watch the video and imagine this, rest your hands on your keyboard but DO NOT type until AFTER you see the typing prompt.

Remember to type as QUICKLY and ACCURATELY as possible

Ask the experimenter any questions now.

You will get one practice trial. Press 'enter/return' when you are ready to start the practice.","This is Section 4. 

In this section, your task will be the same as before - that is, to type the word you see on the screen AFTER the typing prompt. You will see a video again, like in Section 2, only this time, the video will show someone typing the same word that you will need to type.

While watching the video, imagine yourself typing the word on the screen.  Imagine how it would LOOK to see your hands typing the word, as well as how it would FEEL to type it yourself. Think about the muscles moving in your hands and the feel of your fingers pressing the keys. While you watch the video and imagine this, rest your hands on your keyboard but DO NOT type until AFTER you see the typing prompt.

Remember to type as QUICKLY and ACCURATELY as you can.

Ask the experimenter any questions now.

You will get one practice trial. Press 'enter/return' when you are ready to start the practice.",,,mirage,shrewd,video&audio/Sentence1_touch_edited.mp4,video&audio/malady_touch_edited.mp4,revoke,malady,,,,,,,,,,,,,,,,,,,,,,,,,,,,,,,,,,,,,,,,,,,,,,,,,,,,,,,,,,,,,,,,,,,,,,,,,,,,
,,,,,,49,001,H,2022-03-31_15h28.42.751,studentExpTT_allGroups_v2,2021.1.4,MacIntel,60.0024001,,,,,,,,,,,,,,,,,,,,,,,,,,,,,,,"[""3""]",[17.335299999952326],0,0,0,0,1,typingRatingScale.png,"How would you rate your typing performance in the previous section?
Press a number on your keyboard according to the rating scale below to give your answer.
Your first answer will be accepted.",,,,,,,,,,,,,,,,,,,,,,,,,,,,,,,,,,,,,,,,,,,,,,,,,,,,,,,,,,,,,,,,,
,,,,,,49,001,H,2022-03-31_15h28.42.751,studentExpTT_allGroups_v2,2021.1.4,MacIntel,60.0024001,,,,,,,,,,,,,,,,,,,,,,,,,,,,,,,"[""2""]",[12.877899999976194],0,1,1,1,1,imageryCheckScale.png,"In the previous section did you imagine yourself typing?
Press a number on your keyboard according to the rating scale below to give your answer.
Your first answer will be accepted.",,,,,,,,,,,,,,,,,,,,,,,,,,,,,,,,,,,,,,,,,,,,,,,,,,,,,,,,,,,,,,,,,
,,,,,,49,001,H,2022-03-31_15h28.42.751,studentExpTT_allGroups_v2,2021.1.4,MacIntel,60.0024001,,,,,,,,,,,,,,,,,,,"This is Section 2.

In this section, your task will be the same as before - that is, to type the word you see on the screen AFTER the typing prompt. However, rather than just seeing the word before typing, you will also see a video of someone typing different words to what you will need to type. 

While you watch the video, imagine yourself typing the word on the screen. Imagine how it would LOOK to see your hands typing the word, as well as how it would FEEL to type it yourself. Think about the muscles moving in your hands and the feel of your fingers pressing the keys. While you watch the video and imagine this, rest your hands on your keyboard but DO NOT type until AFTER you see the typing prompt.

Remember to type as QUICKLY and ACCURATELY as possible

Ask the experimenter any questions now.

You will get one practice trial. Press 'enter/return' when you are ready to start the practice.","This is Section 4. 

In this section, your task will be the same as before - that is, to type the word you see on the screen AFTER the typing prompt. You will see a video again, like in Section 2, only this time, the video will show someone typing the same word that you will need to type.

While watching the video, imagine yourself typing the word on the screen.  Imagine how it would LOOK to see your hands typing the word, as well as how it would FEEL to type it yourself. Think about the muscles moving in your hands and the feel of your fingers pressing the keys. While you watch the video and imagine this, rest your hands on your keyboard but DO NOT type until AFTER you see the typing prompt.

Remember to type as QUICKLY and ACCURATELY as you can.

Ask the experimenter any questions now.

You will get one practice trial. Press 'enter/return' when you are ready to start the practice.",butter,video&audio/amount_touch_edited.mp4,vanity,hinder,video&audio/Sentence1_touch_edited.mp4,video&audio/matrix_touch_edited.mp4,breach,matrix,1 = AOMIgen,,,,,,,,,,,,,"[""b"",""u"",""t"",""t"",""e"",""r"",""return""]","[0.8841000000238637,1.1791000000239364,1.5122000000478693,1.6365000000000691,1.7618000000716165,1.9117000000478583,2.3802000000478074]",0,0,0,0,1,,,,,,,,,,,,,,,,,,,,,,,,,,,,,,,,,,,,,,,,,,,,,,,,,,,,,,,,
,,,,,,49,001,H,2022-03-31_15h28.42.751,studentExpTT_allGroups_v2,2021.1.4,MacIntel,60.0024001,,,,,,,,,,,,,,,,,,,"This is Section 2.

In this section, your task will be the same as before - that is, to type the word you see on the screen AFTER the typing prompt. However, rather than just seeing the word before typing, you will also see a video of someone typing different words to what you will need to type. 

While you watch the video, imagine yourself typing the word on the screen. Imagine how it would LOOK to see your hands typing the word, as well as how it would FEEL to type it yourself. Think about the muscles moving in your hands and the feel of your fingers pressing the keys. While you watch the video and imagine this, rest your hands on your keyboard but DO NOT type until AFTER you see the typing prompt.

Remember to type as QUICKLY and ACCURATELY as possible

Ask the experimenter any questions now.

You will get one practice trial. Press 'enter/return' when you are ready to start the practice.","This is Section 4. 

In this section, your task will be the same as before - that is, to type the word you see on the screen AFTER the typing prompt. You will see a video again, like in Section 2, only this time, the video will show someone typing the same word that you will need to type.

While watching the video, imagine yourself typing the word on the screen.  Imagine how it would LOOK to see your hands typing the word, as well as how it would FEEL to type it yourself. Think about the muscles moving in your hands and the feel of your fingers pressing the keys. While you watch the video and imagine this, rest your hands on your keyboard but DO NOT type until AFTER you see the typing prompt.

Remember to type as QUICKLY and ACCURATELY as you can.

Ask the experimenter any questions now.

You will get one practice trial. Press 'enter/return' when you are ready to start the practice.",,,murmur,cobble,video&audio/Sentence2_touch_edited.mp4,video&audio/cervix_touch_edited.mp4,export,cervix,,,,,,,,,,,,,,,,,,,,,, export,"[""e"",""x"",""p"",""o"",""r"",""t"",""return""]","[0.9995999999046035,1.4379999999998745,1.5930999999045525,1.8528999999762163,1.9917999999522635,2.2458999999762455,2.755099999904587]",0,0,0,19,1,,,,,,,,,,,,,,,,,,,,,,,,,,,,,,,,,,,,,,,,,,,,,,,
,,,,,,49,001,H,2022-03-31_15h28.42.751,studentExpTT_allGroups_v2,2021.1.4,MacIntel,60.0024001,,,,,,,,,,,,,,,,,,,"This is Section 2.

In this section, your task will be the same as before - that is, to type the word you see on the screen AFTER the typing prompt. However, rather than just seeing the word before typing, you will also see a video of someone typing different words to what you will need to type. 

While you watch the video, imagine yourself typing the word on the screen. Imagine how it would LOOK to see your hands typing the word, as well as how it would FEEL to type it yourself. Think about the muscles moving in your hands and the feel of your fingers pressing the keys. While you watch the video and imagine this, rest your hands on your keyboard but DO NOT type until AFTER you see the typing prompt.

Remember to type as QUICKLY and ACCURATELY as possible

Ask the experimenter any questions now.

You will get one practice trial. Press 'enter/return' when you are ready to start the practice.","This is Section 4. 

In this section, your task will be the same as before - that is, to type the word you see on the screen AFTER the typing prompt. You will see a video again, like in Section 2, only this time, the video will show someone typing the same word that you will need to type.

While watching the video, imagine yourself typing the word on the screen.  Imagine how it would LOOK to see your hands typing the word, as well as how it would FEEL to type it yourself. Think about the muscles moving in your hands and the feel of your fingers pressing the keys. While you watch the video and imagine this, rest your hands on your keyboard but DO NOT type until AFTER you see the typing prompt.

Remember to type as QUICKLY and ACCURATELY as you can.

Ask the experimenter any questions now.

You will get one practice trial. Press 'enter/return' when you are ready to start the practice.",,,convoy,output,video&audio/Sentence1_touch_edited.mp4,video&audio/debtor_touch_edited.mp4,uphold,debtor,,,,,,,,,,,,,,,,,,,,,, uphold,"[""u"",""p"",""h"",""o"",""l"",""d"",""return""]","[1.0506999999286109,1.2370999999047854,2.2173999999761236,2.352699999928518,2.57029999995234,2.7336999999286036,2.901599999904647]",0,1,1,18,1,,,,,,,,,,,,,,,,,,,,,,,,,,,,,,,,,,,,,,,,,,,,,,,
,,,,,,49,001,H,2022-03-31_15h28.42.751,studentExpTT_allGroups_v2,2021.1.4,MacIntel,60.0024001,,,,,,,,,,,,,,,,,,,"This is Section 2.

In this section, your task will be the same as before - that is, to type the word you see on the screen AFTER the typing prompt. However, rather than just seeing the word before typing, you will also see a video of someone typing different words to what you will need to type. 

While you watch the video, imagine yourself typing the word on the screen. Imagine how it would LOOK to see your hands typing the word, as well as how it would FEEL to type it yourself. Think about the muscles moving in your hands and the feel of your fingers pressing the keys. While you watch the video and imagine this, rest your hands on your keyboard but DO NOT type until AFTER you see the typing prompt.

Remember to type as QUICKLY and ACCURATELY as possible

Ask the experimenter any questions now.

You will get one practice trial. Press 'enter/return' when you are ready to start the practice.","This is Section 4. 

In this section, your task will be the same as before - that is, to type the word you see on the screen AFTER the typing prompt. You will see a video again, like in Section 2, only this time, the video will show someone typing the same word that you will need to type.

While watching the video, imagine yourself typing the word on the screen.  Imagine how it would LOOK to see your hands typing the word, as well as how it would FEEL to type it yourself. Think about the muscles moving in your hands and the feel of your fingers pressing the keys. While you watch the video and imagine this, rest your hands on your keyboard but DO NOT type until AFTER you see the typing prompt.

Remember to type as QUICKLY and ACCURATELY as you can.

Ask the experimenter any questions now.

You will get one practice trial. Press 'enter/return' when you are ready to start the practice.",,,mirage,shrewd,video&audio/Sentence1_touch_edited.mp4,video&audio/malady_touch_edited.mp4,revoke,malady,,,,,,,,,,,,,,,,,,,,,, revoke,"[""r"",""e"",""v"",""o"",""k"",""e"",""return""]","[0.9227000000475982,0.9724999999998545,1.2958999999759726,1.4867000000476764,1.67899999999986,1.7984999999998763,2.18189999997594]",0,2,2,6,1,,,,,,,,,,,,,,,,,,,,,,,,,,,,,,,,,,,,,,,,,,,,,,,
,,,,,,49,001,H,2022-03-31_15h28.42.751,studentExpTT_allGroups_v2,2021.1.4,MacIntel,60.0024001,,,,,,,,,,,,,,,,,,,"This is Section 2.

In this section, your task will be the same as before - that is, to type the word you see on the screen AFTER the typing prompt. However, rather than just seeing the word before typing, you will also see a video of someone typing different words to what you will need to type. 

While you watch the video, imagine yourself typing the word on the screen. Imagine how it would LOOK to see your hands typing the word, as well as how it would FEEL to type it yourself. Think about the muscles moving in your hands and the feel of your fingers pressing the keys. While you watch the video and imagine this, rest your hands on your keyboard but DO NOT type until AFTER you see the typing prompt.

Remember to type as QUICKLY and ACCURATELY as possible

Ask the experimenter any questions now.

You will get one practice trial. Press 'enter/return' when you are ready to start the practice.","This is Section 4. 

In this section, your task will be the same as before - that is, to type the word you see on the screen AFTER the typing prompt. You will see a video again, like in Section 2, only this time, the video will show someone typing the same word that you will need to type.

While watching the video, imagine yourself typing the word on the screen.  Imagine how it would LOOK to see your hands typing the word, as well as how it would FEEL to type it yourself. Think about the muscles moving in your hands and the feel of your fingers pressing the keys. While you watch the video and imagine this, rest your hands on your keyboard but DO NOT type until AFTER you see the typing prompt.

Remember to type as QUICKLY and ACCURATELY as you can.

Ask the experimenter any questions now.

You will get one practice trial. Press 'enter/return' when you are ready to start the practice.",,,potent,tandem,video&audio/Sentence4_touch_edited.mp4,video&audio/falter_touch_edited.mp4,origin,falter,,,,,,,,,,,,,,,,,,,,,, origin,"[""o"",""r"",""i"",""g"",""i"",""n"",""return""]","[0.8702000000475891,1.0158999999762273,1.2128999999761163,1.3791000000237545,1.5151000000237218,1.7128999999761163,1.9118999999761854]",0,3,3,15,1,,,,,,,,,,,,,,,,,,,,,,,,,,,,,,,,,,,,,,,,,,,,,,,
,,,,,,49,001,H,2022-03-31_15h28.42.751,studentExpTT_allGroups_v2,2021.1.4,MacIntel,60.0024001,,,,,,,,,,,,,,,,,,,"This is Section 2.

In this section, your task will be the same as before - that is, to type the word you see on the screen AFTER the typing prompt. However, rather than just seeing the word before typing, you will also see a video of someone typing different words to what you will need to type. 

While you watch the video, imagine yourself typing the word on the screen. Imagine how it would LOOK to see your hands typing the word, as well as how it would FEEL to type it yourself. Think about the muscles moving in your hands and the feel of your fingers pressing the keys. While you watch the video and imagine this, rest your hands on your keyboard but DO NOT type until AFTER you see the typing prompt.

Remember to type as QUICKLY and ACCURATELY as possible

Ask the experimenter any questions now.

You will get one practice trial. Press 'enter/return' when you are ready to start the practice.","This is Section 4. 

In this section, your task will be the same as before - that is, to type the word you see on the screen AFTER the typing prompt. You will see a video again, like in Section 2, only this time, the video will show someone typing the same word that you will need to type.

While watching the video, imagine yourself typing the word on the screen.  Imagine how it would LOOK to see your hands typing the word, as well as how it would FEEL to type it yourself. Think about the muscles moving in your hands and the feel of your fingers pressing the keys. While you watch the video and imagine this, rest your hands on your keyboard but DO NOT type until AFTER you see the typing prompt.

Remember to type as QUICKLY and ACCURATELY as you can.

Ask the experimenter any questions now.

You will get one practice trial. Press 'enter/return' when you are ready to start the practice.",,,sonnet,hearth,video&audio/Sentence3_touch_edited.mp4,video&audio/hippie_touch_edited.mp4,herbal,hippie,,,,,,,,,,,,,,,,,,,,,, herbal,"[""h"",""e"",""r"",""b"",""a"",""l"",""return""]","[0.7188999999762018,0.8185000000000855,1.0553999999763164,1.2633000000716947,1.7670000000000528,1.9182000000478183,2.24780000007172]",0,4,4,14,1,,,,,,,,,,,,,,,,,,,,,,,,,,,,,,,,,,,,,,,,,,,,,,,
,,,,,,49,001,H,2022-03-31_15h28.42.751,studentExpTT_allGroups_v2,2021.1.4,MacIntel,60.0024001,,,,,,,,,,,,,,,,,,,"This is Section 2.

In this section, your task will be the same as before - that is, to type the word you see on the screen AFTER the typing prompt. However, rather than just seeing the word before typing, you will also see a video of someone typing different words to what you will need to type. 

While you watch the video, imagine yourself typing the word on the screen. Imagine how it would LOOK to see your hands typing the word, as well as how it would FEEL to type it yourself. Think about the muscles moving in your hands and the feel of your fingers pressing the keys. While you watch the video and imagine this, rest your hands on your keyboard but DO NOT type until AFTER you see the typing prompt.

Remember to type as QUICKLY and ACCURATELY as possible

Ask the experimenter any questions now.

You will get one practice trial. Press 'enter/return' when you are ready to start the practice.","This is Section 4. 

In this section, your task will be the same as before - that is, to type the word you see on the screen AFTER the typing prompt. You will see a video again, like in Section 2, only this time, the video will show someone typing the same word that you will need to type.

While watching the video, imagine yourself typing the word on the screen.  Imagine how it would LOOK to see your hands typing the word, as well as how it would FEEL to type it yourself. Think about the muscles moving in your hands and the feel of your fingers pressing the keys. While you watch the video and imagine this, rest your hands on your keyboard but DO NOT type until AFTER you see the typing prompt.

Remember to type as QUICKLY and ACCURATELY as you can.

Ask the experimenter any questions now.

You will get one practice trial. Press 'enter/return' when you are ready to start the practice.",,,pursue,caviar,video&audio/Sentence3_touch_edited.mp4,video&audio/piston_touch_edited.mp4,shrill,piston,,,,,,,,,,,,,,,,,,,,,, shrill,"[""s"",""h"",""r"",""i"",""l"",""l"",""return""]","[0.5988999999763109,0.76989999997636,1.0168999999762036,1.2158999999762727,1.4916000000239364,2.0821000000239565,2.516399999976329]",0,5,5,20,1,,,,,,,,,,,,,,,,,,,,,,,,,,,,,,,,,,,,,,,,,,,,,,,
,,,,,,49,001,H,2022-03-31_15h28.42.751,studentExpTT_allGroups_v2,2021.1.4,MacIntel,60.0024001,,,,,,,,,,,,,,,,,,,"This is Section 2.

In this section, your task will be the same as before - that is, to type the word you see on the screen AFTER the typing prompt. However, rather than just seeing the word before typing, you will also see a video of someone typing different words to what you will need to type. 

While you watch the video, imagine yourself typing the word on the screen. Imagine how it would LOOK to see your hands typing the word, as well as how it would FEEL to type it yourself. Think about the muscles moving in your hands and the feel of your fingers pressing the keys. While you watch the video and imagine this, rest your hands on your keyboard but DO NOT type until AFTER you see the typing prompt.

Remember to type as QUICKLY and ACCURATELY as possible

Ask the experimenter any questions now.

You will get one practice trial. Press 'enter/return' when you are ready to start the practice.","This is Section 4. 

In this section, your task will be the same as before - that is, to type the word you see on the screen AFTER the typing prompt. You will see a video again, like in Section 2, only this time, the video will show someone typing the same word that you will need to type.

While watching the video, imagine yourself typing the word on the screen.  Imagine how it would LOOK to see your hands typing the word, as well as how it would FEEL to type it yourself. Think about the muscles moving in your hands and the feel of your fingers pressing the keys. While you watch the video and imagine this, rest your hands on your keyboard but DO NOT type until AFTER you see the typing prompt.

Remember to type as QUICKLY and ACCURATELY as you can.

Ask the experimenter any questions now.

You will get one practice trial. Press 'enter/return' when you are ready to start the practice.",,,brazen,fungal,video&audio/Sentence5_touch_edited.mp4,video&audio/subtle_touch_edited.mp4,mucous,subtle,,,,,,,,,,,,,,,,,,,,,, mucous,"[""m"",""u"",""c"",""o"",""u"",""s"",""return""]","[0.4028999999761709,0.8301999999284817,0.9710000000000036,1.1625999999046144,1.4293999999761127,1.5060999999045634,1.8801999999284362]",0,6,6,22,1,,,,,,,,,,,,,,,,,,,,,,,,,,,,,,,,,,,,,,,,,,,,,,,
,,,,,,49,001,H,2022-03-31_15h28.42.751,studentExpTT_allGroups_v2,2021.1.4,MacIntel,60.0024001,,,,,,,,,,,,,,,,,,,"This is Section 2.

In this section, your task will be the same as before - that is, to type the word you see on the screen AFTER the typing prompt. However, rather than just seeing the word before typing, you will also see a video of someone typing different words to what you will need to type. 

While you watch the video, imagine yourself typing the word on the screen. Imagine how it would LOOK to see your hands typing the word, as well as how it would FEEL to type it yourself. Think about the muscles moving in your hands and the feel of your fingers pressing the keys. While you watch the video and imagine this, rest your hands on your keyboard but DO NOT type until AFTER you see the typing prompt.

Remember to type as QUICKLY and ACCURATELY as possible

Ask the experimenter any questions now.

You will get one practice trial. Press 'enter/return' when you are ready to start the practice.","This is Section 4. 

In this section, your task will be the same as before - that is, to type the word you see on the screen AFTER the typing prompt. You will see a video again, like in Section 2, only this time, the video will show someone typing the same word that you will need to type.

While watching the video, imagine yourself typing the word on the screen.  Imagine how it would LOOK to see your hands typing the word, as well as how it would FEEL to type it yourself. Think about the muscles moving in your hands and the feel of your fingers pressing the keys. While you watch the video and imagine this, rest your hands on your keyboard but DO NOT type until AFTER you see the typing prompt.

Remember to type as QUICKLY and ACCURATELY as you can.

Ask the experimenter any questions now.

You will get one practice trial. Press 'enter/return' when you are ready to start the practice.",butter,video&audio/amount_touch_edited.mp4,vanity,hinder,video&audio/Sentence1_touch_edited.mp4,video&audio/matrix_touch_edited.mp4,breach,matrix,1 = AOMIgen,,,,,,,,,,,,,,,,,,,,, breach,"[""b"",""e"",""backspace"",""r"",""e"",""a"",""c"",""h"",""return""]","[0.7998999999761054,1.0384999999998854,2.0981999999282834,2.263100000023769,2.3487999999522344,2.6384999999997945,2.7053999999759526,2.8584999999998217,3.4716000000237273]",0,7,7,0,1,,,,,,,,,,,,,,,,,,,,,,,,,,,,,,,,,,,,,,,,,,,,,,,
,,,,,,49,001,H,2022-03-31_15h28.42.751,studentExpTT_allGroups_v2,2021.1.4,MacIntel,60.0024001,,,,,,,,,,,,,,,,,,,"This is Section 2.

In this section, your task will be the same as before - that is, to type the word you see on the screen AFTER the typing prompt. However, rather than just seeing the word before typing, you will also see a video of someone typing different words to what you will need to type. 

While you watch the video, imagine yourself typing the word on the screen. Imagine how it would LOOK to see your hands typing the word, as well as how it would FEEL to type it yourself. Think about the muscles moving in your hands and the feel of your fingers pressing the keys. While you watch the video and imagine this, rest your hands on your keyboard but DO NOT type until AFTER you see the typing prompt.

Remember to type as QUICKLY and ACCURATELY as possible

Ask the experimenter any questions now.

You will get one practice trial. Press 'enter/return' when you are ready to start the practice.","This is Section 4. 

In this section, your task will be the same as before - that is, to type the word you see on the screen AFTER the typing prompt. You will see a video again, like in Section 2, only this time, the video will show someone typing the same word that you will need to type.

While watching the video, imagine yourself typing the word on the screen.  Imagine how it would LOOK to see your hands typing the word, as well as how it would FEEL to type it yourself. Think about the muscles moving in your hands and the feel of your fingers pressing the keys. While you watch the video and imagine this, rest your hands on your keyboard but DO NOT type until AFTER you see the typing prompt.

Remember to type as QUICKLY and ACCURATELY as you can.

Ask the experimenter any questions now.

You will get one practice trial. Press 'enter/return' when you are ready to start the practice.",,,satire,mangle,video&audio/Sentence1_touch_edited.mp4,video&audio/devise_touch_edited.mp4,warble,devise,,,,,,,,,,,,,,,,,,,,,, warble,"[""w"",""a"",""r"",""b"",""l"",""e"",""return""]","[0.37029999995252183,0.5542999999524909,1.028600000023971,1.2286000000240165,1.7988999999763564,1.9192000000477947,2.1991000000239183]",0,8,8,24,1,,,,,,,,,,,,,,,,,,,,,,,,,,,,,,,,,,,,,,,,,,,,,,,
,,,,,,49,001,H,2022-03-31_15h28.42.751,studentExpTT_allGroups_v2,2021.1.4,MacIntel,60.0024001,,,,,,,,,,,,,,,,,,,"This is Section 2.

In this section, your task will be the same as before - that is, to type the word you see on the screen AFTER the typing prompt. However, rather than just seeing the word before typing, you will also see a video of someone typing different words to what you will need to type. 

